"acc","accuracy","average_response_time","avg_rt","background","block","canvas_backend","clock_backend","color_backend","compensation","coordinates","correct","correct_instruction1","correct_keyboard_response","correct_response","count_correctFeedback","count_expSequence","count_experiment","count_experimentLoop","count_fixation","count_incorrectFeedback","count_instruction1","count_instructions2","count_isi","count_keyboard_response","count_logger","count_memorySet","count_practiceloop","count_prob","count_thankYou","datetime","description","disable_garbage_collection","experiment_file","experiment_path","font_bold","font_family","font_italic","font_size","font_underline","foreground","form_clicks","fullscreen","height","keyboard_backend","live_row","live_row_practiceloop","logfile","mouse_backend","numberSet","opensesame_codename","opensesame_version","posInSet","present","repeat_cycle","response","response_instruction1","response_instructions2","response_keyboard_response","response_thankYou","response_time","response_time_instruction1","response_time_instructions2","response_time_keyboard_response","response_time_thankYou","round_decimals","sampler_backend","setSize","sound_buf_size","sound_channels","sound_freq","sound_sample_size","start","subject_nr","subject_parity","target","time_correctFeedback","time_expSequence","time_experiment","time_experimentLoop","time_fixation","time_incorrectFeedback","time_instruction1","time_instructions2","time_isi","time_keyboard_response","time_logger","time_memorySet","time_practiceloop","time_prob","time_thankYou","title","total_correct","total_response_time","total_responses","uniform_coordinates","width"
"100","100","919","919","black","practice","legacy","legacy","legacy","0","uniform","1","undefined","1","left","0","0","0","0","0","0","0","0","0","0","0","0","0","0","0","10/18/20 17:08:29","The main experiment item","yes","SternbergTask.osexp","C:/Users/18177/OneDrive/Documents/School/Grad School/Fall 2020/Lab 3 Sternberg Memory","no","mono","no","18","no","white","no","yes","768","legacy","0","0","C:/Users/18177/OneDrive/Documents/School/Grad School/Fall 2020/Lab 3 Sternberg Memory/subject-1.csv","legacy","4 3 1 7 9 8","Lentiform Loewenfeld","3.3.3","1","y","0","left","right","NA","left","NA","919","33676","NA","919","NA","2","legacy","6","1024","2","48000","-16","experiment","1","odd","4","NA","38033","3796","NA","38035","NA","3804","NA","40240","42241","43160","39037","37481","42241","NA","Sternberg Task","1","919","1","yes","1024"
"50","50","1027.5","1027.5","black","practice","legacy","legacy","legacy","0","uniform","0","undefined","0","left","1","1","0","0","1","1","0","0","1","1","1","1","0","1","0","10/18/20 17:08:29","The main experiment item","yes","SternbergTask.osexp","C:/Users/18177/OneDrive/Documents/School/Grad School/Fall 2020/Lab 3 Sternberg Memory","no","mono","no","18","no","white","no","yes","768","legacy","1","1","C:/Users/18177/OneDrive/Documents/School/Grad School/Fall 2020/Lab 3 Sternberg Memory/subject-1.csv","legacy","1 7 9 8 5","Lentiform Loewenfeld","3.3.3","4","y","0","right","right","NA","right","NA","1136","33676","NA","1136","NA","2","legacy","5","1024","2","48000","-16","experiment","1","odd","8","43202","44260","3796","NA","44261","NA","3804","NA","46468","48469","49606","45263","37481","48469","NA","Sternberg Task","1","2055","2","yes","1024"
"66.6666666667","66.6666666667","975.333333333","975.333333333","black","practice","legacy","legacy","legacy","0","uniform","1","undefined","1","left","2","2","0","0","2","2","0","0","2","2","2","2","0","2","0","10/18/20 17:08:29","The main experiment item","yes","SternbergTask.osexp","C:/Users/18177/OneDrive/Documents/School/Grad School/Fall 2020/Lab 3 Sternberg Memory","no","mono","no","18","no","white","no","yes","768","legacy","2","2","C:/Users/18177/OneDrive/Documents/School/Grad School/Fall 2020/Lab 3 Sternberg Memory/subject-1.csv","legacy","2 9 4","Lentiform Loewenfeld","3.3.3","3","y","0","left","right","NA","left","NA","871","33676","NA","871","NA","2","legacy","3","1024","2","48000","-16","experiment","1","odd","4","43202","50664","3796","NA","50666","49609","3804","NA","52874","54875","55747","51670","37481","54875","NA","Sternberg Task","2","2926","3","yes","1024"
"75","75","949.5","949.5","black","practice","legacy","legacy","legacy","0","uniform","1","undefined","1","right","3","3","0","0","3","3","0","0","3","3","3","3","0","3","0","10/18/20 17:08:29","The main experiment item","yes","SternbergTask.osexp","C:/Users/18177/OneDrive/Documents/School/Grad School/Fall 2020/Lab 3 Sternberg Memory","no","mono","no","18","no","white","no","yes","768","legacy","3","3","C:/Users/18177/OneDrive/Documents/School/Grad School/Fall 2020/Lab 3 Sternberg Memory/subject-1.csv","legacy","3 1 9 4","Lentiform Loewenfeld","3.3.3","0","n","0","right","right","NA","right","NA","872","33676","NA","872","NA","2","legacy","4","1024","2","48000","-16","experiment","1","odd","6","55759","56828","3796","NA","56829","49609","3804","NA","59034","61035","61907","57830","37481","61035","NA","Sternberg Task","3","3798","4","yes","1024"
"80","80","933","933","black","practice","legacy","legacy","legacy","0","uniform","1","undefined","1","left","4","4","0","0","4","4","0","0","4","4","4","4","0","4","0","10/18/20 17:08:29","The main experiment item","yes","SternbergTask.osexp","C:/Users/18177/OneDrive/Documents/School/Grad School/Fall 2020/Lab 3 Sternberg Memory","no","mono","no","18","no","white","no","yes","768","legacy","4","4","C:/Users/18177/OneDrive/Documents/School/Grad School/Fall 2020/Lab 3 Sternberg Memory/subject-1.csv","legacy","6","Lentiform Loewenfeld","3.3.3","1","y","0","left","right","NA","left","NA","867","33676","NA","867","NA","2","legacy","1","1024","2","48000","-16","experiment","1","odd","6","61911","62966","3796","NA","62968","49609","3804","NA","65176","67177","68044","63972","37481","67177","NA","Sternberg Task","4","4665","5","yes","1024"
"83.3333333333","83.3333333333","905","905","black","practice","legacy","legacy","legacy","0","uniform","1","undefined","1","right","5","5","0","0","5","5","0","0","5","5","5","5","0","5","0","10/18/20 17:08:29","The main experiment item","yes","SternbergTask.osexp","C:/Users/18177/OneDrive/Documents/School/Grad School/Fall 2020/Lab 3 Sternberg Memory","no","mono","no","18","no","white","no","yes","768","legacy","5","5","C:/Users/18177/OneDrive/Documents/School/Grad School/Fall 2020/Lab 3 Sternberg Memory/subject-1.csv","legacy","9 6 7 4 5","Lentiform Loewenfeld","3.3.3","0","n","0","right","right","NA","right","NA","765","33676","NA","765","NA","2","legacy","5","1024","2","48000","-16","experiment","1","odd","3","68058","69111","3796","NA","69113","49609","3804","NA","71319","73321","74086","70117","37481","73321","NA","Sternberg Task","5","5430","6","yes","1024"
"85.7142857143","85.7142857143","873.571428571","873.571428571","black","practice","legacy","legacy","legacy","0","uniform","1","undefined","1","left","6","6","0","0","6","6","0","0","6","6","6","6","0","6","0","10/18/20 17:08:29","The main experiment item","yes","SternbergTask.osexp","C:/Users/18177/OneDrive/Documents/School/Grad School/Fall 2020/Lab 3 Sternberg Memory","no","mono","no","18","no","white","no","yes","768","legacy","6","6","C:/Users/18177/OneDrive/Documents/School/Grad School/Fall 2020/Lab 3 Sternberg Memory/subject-1.csv","legacy","4 8","Lentiform Loewenfeld","3.3.3","1","y","0","left","right","NA","left","NA","685","33676","NA","685","NA","2","legacy","2","1024","2","48000","-16","experiment","1","odd","4","74098","75153","3796","NA","75154","49609","3804","NA","77361","79365","80051","76157","37481","79365","NA","Sternberg Task","6","6115","7","yes","1024"
"87.5","87.5","873","873","black","practice","legacy","legacy","legacy","0","uniform","1","undefined","1","right","7","7","0","0","7","7","0","0","7","7","7","7","0","7","0","10/18/20 17:08:29","The main experiment item","yes","SternbergTask.osexp","C:/Users/18177/OneDrive/Documents/School/Grad School/Fall 2020/Lab 3 Sternberg Memory","no","mono","no","18","no","white","no","yes","768","legacy","7","7","C:/Users/18177/OneDrive/Documents/School/Grad School/Fall 2020/Lab 3 Sternberg Memory/subject-1.csv","legacy","5","Lentiform Loewenfeld","3.3.3","0","n","0","right","right","NA","right","NA","869","33676","NA","869","NA","2","legacy","1","1024","2","48000","-16","experiment","1","odd","3","80063","81117","3796","NA","81118","49609","3804","NA","83321","85322","86193","82120","37481","85322","NA","Sternberg Task","7","6984","8","yes","1024"
"88.8888888889","88.8888888889","931.888888889","931.888888889","black","practice","legacy","legacy","legacy","0","uniform","1","undefined","1","right","8","8","0","0","8","8","0","0","8","8","8","8","0","8","0","10/18/20 17:08:29","The main experiment item","yes","SternbergTask.osexp","C:/Users/18177/OneDrive/Documents/School/Grad School/Fall 2020/Lab 3 Sternberg Memory","no","mono","no","18","no","white","no","yes","768","legacy","8","8","C:/Users/18177/OneDrive/Documents/School/Grad School/Fall 2020/Lab 3 Sternberg Memory/subject-1.csv","legacy","2 1","Lentiform Loewenfeld","3.3.3","0","n","0","right","right","NA","right","NA","1403","33676","NA","1403","NA","2","legacy","2","1024","2","48000","-16","experiment","1","odd","5","86205","87261","3796","NA","87262","49609","3804","NA","89464","91465","92869","88263","37481","91465","NA","Sternberg Task","8","8387","9","yes","1024"
"90","90","914.1","914.1","black","practice","legacy","legacy","legacy","0","uniform","1","undefined","1","right","9","9","0","0","9","9","0","0","9","9","9","9","0","9","0","10/18/20 17:08:29","The main experiment item","yes","SternbergTask.osexp","C:/Users/18177/OneDrive/Documents/School/Grad School/Fall 2020/Lab 3 Sternberg Memory","no","mono","no","18","no","white","no","yes","768","legacy","9","9","C:/Users/18177/OneDrive/Documents/School/Grad School/Fall 2020/Lab 3 Sternberg Memory/subject-1.csv","legacy","5 7 8 4 1 2","Lentiform Loewenfeld","3.3.3","0","n","0","right","right","NA","right","NA","754","33676","NA","754","NA","2","legacy","6","1024","2","48000","-16","experiment","1","odd","6","92882","93936","3796","NA","93937","49609","3804","NA","96142","98143","98898","94938","37481","98143","NA","Sternberg Task","9","9141","10","yes","1024"
"90.9090909091","90.9090909091","874.181818182","874.181818182","black","practice","legacy","legacy","legacy","0","uniform","1","undefined","1","left","10","10","0","0","10","10","0","0","10","10","10","10","0","10","0","10/18/20 17:08:29","The main experiment item","yes","SternbergTask.osexp","C:/Users/18177/OneDrive/Documents/School/Grad School/Fall 2020/Lab 3 Sternberg Memory","no","mono","no","18","no","white","no","yes","768","legacy","10","10","C:/Users/18177/OneDrive/Documents/School/Grad School/Fall 2020/Lab 3 Sternberg Memory/subject-1.csv","legacy","1 5 2 9","Lentiform Loewenfeld","3.3.3","2","y","0","left","right","NA","left","NA","475","33676","NA","475","NA","2","legacy","4","1024","2","48000","-16","experiment","1","odd","5","98909","99965","3796","NA","99966","49609","3804","NA","102172","104173","104649","100968","37481","104173","NA","Sternberg Task","10","9616","11","yes","1024"
"91.6666666667","91.6666666667","876.666666667","876.666666667","black","practice","legacy","legacy","legacy","0","uniform","1","undefined","1","right","11","11","0","0","11","11","0","0","11","11","11","11","0","11","0","10/18/20 17:08:29","The main experiment item","yes","SternbergTask.osexp","C:/Users/18177/OneDrive/Documents/School/Grad School/Fall 2020/Lab 3 Sternberg Memory","no","mono","no","18","no","white","no","yes","768","legacy","11","11","C:/Users/18177/OneDrive/Documents/School/Grad School/Fall 2020/Lab 3 Sternberg Memory/subject-1.csv","legacy","4 1 5","Lentiform Loewenfeld","3.3.3","0","n","0","right","right","NA","right","NA","904","33676","NA","904","NA","2","legacy","3","1024","2","48000","-16","experiment","1","odd","2","104663","105718","3796","NA","105719","49609","3804","NA","107925","109926","110831","106721","37481","109926","NA","Sternberg Task","11","10520","12","yes","1024"
"92.3076923077","92.3076923077","869","869","black","experiment","legacy","legacy","legacy","0","uniform","1","undefined","1","right","12","12","0","0","12","12","0","0","12","12","12","12","0","12","0","10/18/20 17:08:29","The main experiment item","yes","SternbergTask.osexp","C:/Users/18177/OneDrive/Documents/School/Grad School/Fall 2020/Lab 3 Sternberg Memory","no","mono","no","18","no","white","no","yes","768","legacy","0","11","C:/Users/18177/OneDrive/Documents/School/Grad School/Fall 2020/Lab 3 Sternberg Memory/subject-1.csv","legacy","1 3 2 6 9","Lentiform Loewenfeld","3.3.3","0","n","0","right","right","right","right","NA","777","33676","7670","777","NA","2","legacy","5","1024","2","48000","-16","experiment","1","odd","5","110842","119591","3796","119526","119593","49609","3804","111855","121799","123801","124578","120596","37481","123800","NA","Sternberg Task","12","11297","13","yes","1024"
"92.8571428571","92.8571428571","852.5","852.5","black","experiment","legacy","legacy","legacy","0","uniform","1","undefined","1","right","13","13","0","0","13","13","0","0","13","13","13","13","0","13","0","10/18/20 17:08:29","The main experiment item","yes","SternbergTask.osexp","C:/Users/18177/OneDrive/Documents/School/Grad School/Fall 2020/Lab 3 Sternberg Memory","no","mono","no","18","no","white","no","yes","768","legacy","1","11","C:/Users/18177/OneDrive/Documents/School/Grad School/Fall 2020/Lab 3 Sternberg Memory/subject-1.csv","legacy","1 7 5 2","Lentiform Loewenfeld","3.3.3","0","n","0","right","right","right","right","NA","638","33676","7670","638","NA","2","legacy","4","1024","2","48000","-16","experiment","1","odd","3","124582","125637","3796","119526","125639","49609","3804","111855","127844","129845","130483","126640","37481","129845","NA","Sternberg Task","13","11935","14","yes","1024"
"93.3333333333","93.3333333333","836.466666667","836.466666667","black","experiment","legacy","legacy","legacy","0","uniform","1","undefined","1","right","14","14","0","0","14","14","0","0","14","14","14","14","0","14","0","10/18/20 17:08:29","The main experiment item","yes","SternbergTask.osexp","C:/Users/18177/OneDrive/Documents/School/Grad School/Fall 2020/Lab 3 Sternberg Memory","no","mono","no","18","no","white","no","yes","768","legacy","2","11","C:/Users/18177/OneDrive/Documents/School/Grad School/Fall 2020/Lab 3 Sternberg Memory/subject-1.csv","legacy","3 9 1","Lentiform Loewenfeld","3.3.3","0","n","0","right","right","right","right","NA","612","33676","7670","612","NA","2","legacy","3","1024","2","48000","-16","experiment","1","odd","7","130487","131541","3796","119526","131543","49609","3804","111855","133752","135753","136366","132546","37481","135753","NA","Sternberg Task","14","12547","15","yes","1024"
"93.75","93.75","828.4375","828.4375","black","experiment","legacy","legacy","legacy","0","uniform","1","undefined","1","right","15","15","0","0","15","15","0","0","15","15","15","15","0","15","0","10/18/20 17:08:29","The main experiment item","yes","SternbergTask.osexp","C:/Users/18177/OneDrive/Documents/School/Grad School/Fall 2020/Lab 3 Sternberg Memory","no","mono","no","18","no","white","no","yes","768","legacy","3","11","C:/Users/18177/OneDrive/Documents/School/Grad School/Fall 2020/Lab 3 Sternberg Memory/subject-1.csv","legacy","2 8 9 4 1","Lentiform Loewenfeld","3.3.3","0","n","0","right","right","right","right","NA","708","33676","7670","708","NA","2","legacy","5","1024","2","48000","-16","experiment","1","odd","5","136377","137432","3796","119526","137433","49609","3804","111855","139639","141640","142349","138434","37481","141640","NA","Sternberg Task","15","13255","16","yes","1024"
"94.1176470588","94.1176470588","848.176470588","848.176470588","black","experiment","legacy","legacy","legacy","0","uniform","1","undefined","1","right","16","16","0","0","16","16","0","0","16","16","16","16","0","16","0","10/18/20 17:08:29","The main experiment item","yes","SternbergTask.osexp","C:/Users/18177/OneDrive/Documents/School/Grad School/Fall 2020/Lab 3 Sternberg Memory","no","mono","no","18","no","white","no","yes","768","legacy","4","11","C:/Users/18177/OneDrive/Documents/School/Grad School/Fall 2020/Lab 3 Sternberg Memory/subject-1.csv","legacy","2 8 9","Lentiform Loewenfeld","3.3.3","0","n","0","right","right","right","right","NA","1164","33676","7670","1164","NA","2","legacy","3","1024","2","48000","-16","experiment","1","odd","6","142352","143405","3796","119526","143407","49609","3804","111855","145610","147613","148778","144407","37481","147613","NA","Sternberg Task","16","14419","17","yes","1024"
"94.4444444444","94.4444444444","832.5","832.5","black","experiment","legacy","legacy","legacy","0","uniform","1","undefined","1","right","17","17","0","0","17","17","0","0","17","17","17","17","0","17","0","10/18/20 17:08:29","The main experiment item","yes","SternbergTask.osexp","C:/Users/18177/OneDrive/Documents/School/Grad School/Fall 2020/Lab 3 Sternberg Memory","no","mono","no","18","no","white","no","yes","768","legacy","5","11","C:/Users/18177/OneDrive/Documents/School/Grad School/Fall 2020/Lab 3 Sternberg Memory/subject-1.csv","legacy","9","Lentiform Loewenfeld","3.3.3","0","n","0","right","right","right","right","NA","566","33676","7670","566","NA","2","legacy","1","1024","2","48000","-16","experiment","1","odd","6","148790","149844","3796","119526","149846","49609","3804","111855","152051","154055","154622","150847","37481","154055","NA","Sternberg Task","17","14985","18","yes","1024"
"94.7368421053","94.7368421053","852.684210526","852.684210526","black","experiment","legacy","legacy","legacy","0","uniform","1","undefined","1","left","18","18","0","0","18","18","0","0","18","18","18","18","0","18","0","10/18/20 17:08:29","The main experiment item","yes","SternbergTask.osexp","C:/Users/18177/OneDrive/Documents/School/Grad School/Fall 2020/Lab 3 Sternberg Memory","no","mono","no","18","no","white","no","yes","768","legacy","6","11","C:/Users/18177/OneDrive/Documents/School/Grad School/Fall 2020/Lab 3 Sternberg Memory/subject-1.csv","legacy","8 9 5 7 1 6","Lentiform Loewenfeld","3.3.3","4","y","0","left","right","right","left","NA","1216","33676","7670","1216","NA","2","legacy","6","1024","2","48000","-16","experiment","1","odd","7","154625","155692","3796","119526","155694","49609","3804","111855","157901","159902","161118","156696","37481","159902","NA","Sternberg Task","18","16201","19","yes","1024"
"95","95","854.9","854.9","black","experiment","legacy","legacy","legacy","0","uniform","1","undefined","1","left","19","19","0","0","19","19","0","0","19","19","19","19","0","19","0","10/18/20 17:08:29","The main experiment item","yes","SternbergTask.osexp","C:/Users/18177/OneDrive/Documents/School/Grad School/Fall 2020/Lab 3 Sternberg Memory","no","mono","no","18","no","white","no","yes","768","legacy","7","11","C:/Users/18177/OneDrive/Documents/School/Grad School/Fall 2020/Lab 3 Sternberg Memory/subject-1.csv","legacy","9 5 8 1","Lentiform Loewenfeld","3.3.3","2","y","0","left","right","right","left","NA","897","33676","7670","897","NA","2","legacy","4","1024","2","48000","-16","experiment","1","odd","5","161131","162199","3796","119526","162201","49609","3804","111855","164407","166408","167307","163202","37481","166408","NA","Sternberg Task","19","17098","20","yes","1024"
"95.2380952381","95.2380952381","861.047619048","861.047619048","black","experiment","legacy","legacy","legacy","0","uniform","1","undefined","1","left","20","20","0","0","20","20","0","0","20","20","20","20","0","20","0","10/18/20 17:08:29","The main experiment item","yes","SternbergTask.osexp","C:/Users/18177/OneDrive/Documents/School/Grad School/Fall 2020/Lab 3 Sternberg Memory","no","mono","no","18","no","white","no","yes","768","legacy","8","11","C:/Users/18177/OneDrive/Documents/School/Grad School/Fall 2020/Lab 3 Sternberg Memory/subject-1.csv","legacy","7 6","Lentiform Loewenfeld","3.3.3","2","y","0","left","right","right","left","NA","984","33676","7670","984","NA","2","legacy","2","1024","2","48000","-16","experiment","1","odd","6","167319","168383","3796","119526","168385","49609","3804","111855","170591","172592","173577","169386","37481","172592","NA","Sternberg Task","20","18082","21","yes","1024"
"95.4545454545","95.4545454545","879.227272727","879.227272727","black","experiment","legacy","legacy","legacy","0","uniform","1","undefined","1","left","21","21","0","0","21","21","0","0","21","21","21","21","0","21","0","10/18/20 17:08:29","The main experiment item","yes","SternbergTask.osexp","C:/Users/18177/OneDrive/Documents/School/Grad School/Fall 2020/Lab 3 Sternberg Memory","no","mono","no","18","no","white","no","yes","768","legacy","9","11","C:/Users/18177/OneDrive/Documents/School/Grad School/Fall 2020/Lab 3 Sternberg Memory/subject-1.csv","legacy","1 4 9 3 2 5","Lentiform Loewenfeld","3.3.3","3","y","0","left","right","right","left","NA","1261","33676","7670","1261","NA","2","legacy","6","1024","2","48000","-16","experiment","1","odd","9","173590","174644","3796","119526","174645","49609","3804","111855","176854","178855","180117","175649","37481","178855","NA","Sternberg Task","21","19343","22","yes","1024"
"91.3043478261","91.3043478261","872.652173913","872.652173913","black","experiment","legacy","legacy","legacy","0","uniform","0","undefined","0","left","22","22","0","0","22","22","0","0","22","22","22","22","0","22","0","10/18/20 17:08:29","The main experiment item","yes","SternbergTask.osexp","C:/Users/18177/OneDrive/Documents/School/Grad School/Fall 2020/Lab 3 Sternberg Memory","no","mono","no","18","no","white","no","yes","768","legacy","10","11","C:/Users/18177/OneDrive/Documents/School/Grad School/Fall 2020/Lab 3 Sternberg Memory/subject-1.csv","legacy","7 8 4 6 9 5","Lentiform Loewenfeld","3.3.3","4","y","0","right","right","right","right","NA","728","33676","7670","728","NA","2","legacy","6","1024","2","48000","-16","experiment","1","odd","6","180131","181185","3796","119526","181187","49609","3804","111855","183391","185392","186121","182188","37481","185392","NA","Sternberg Task","21","20071","23","yes","1024"
"91.6666666667","91.6666666667","858.25","858.25","black","experiment","legacy","legacy","legacy","0","uniform","1","undefined","1","left","23","23","0","0","23","23","0","0","23","23","23","23","0","23","0","10/18/20 17:08:29","The main experiment item","yes","SternbergTask.osexp","C:/Users/18177/OneDrive/Documents/School/Grad School/Fall 2020/Lab 3 Sternberg Memory","no","mono","no","18","no","white","no","yes","768","legacy","11","11","C:/Users/18177/OneDrive/Documents/School/Grad School/Fall 2020/Lab 3 Sternberg Memory/subject-1.csv","legacy","3 4","Lentiform Loewenfeld","3.3.3","1","y","0","left","right","right","left","NA","527","33676","7670","527","NA","2","legacy","2","1024","2","48000","-16","experiment","1","odd","3","180131","187187","3796","119526","187189","186133","3804","111855","189394","191395","191923","188191","37481","191395","NA","Sternberg Task","22","20598","24","yes","1024"
"92","92","863.44","863.44","black","experiment","legacy","legacy","legacy","0","uniform","1","undefined","1","right","24","24","0","0","24","24","0","0","24","24","24","24","0","24","0","10/18/20 17:08:29","The main experiment item","yes","SternbergTask.osexp","C:/Users/18177/OneDrive/Documents/School/Grad School/Fall 2020/Lab 3 Sternberg Memory","no","mono","no","18","no","white","no","yes","768","legacy","12","11","C:/Users/18177/OneDrive/Documents/School/Grad School/Fall 2020/Lab 3 Sternberg Memory/subject-1.csv","legacy","3 4 2","Lentiform Loewenfeld","3.3.3","0","n","0","right","right","right","right","NA","988","33676","7670","988","NA","2","legacy","3","1024","2","48000","-16","experiment","1","odd","5","191934","193001","3796","119526","193002","186133","3804","111855","195208","197209","198198","194003","37481","197209","NA","Sternberg Task","23","21586","25","yes","1024"
"92.3076923077","92.3076923077","860.923076923","860.923076923","black","experiment","legacy","legacy","legacy","0","uniform","1","undefined","1","left","25","25","0","0","25","25","0","0","25","25","25","25","0","25","0","10/18/20 17:08:29","The main experiment item","yes","SternbergTask.osexp","C:/Users/18177/OneDrive/Documents/School/Grad School/Fall 2020/Lab 3 Sternberg Memory","no","mono","no","18","no","white","no","yes","768","legacy","13","11","C:/Users/18177/OneDrive/Documents/School/Grad School/Fall 2020/Lab 3 Sternberg Memory/subject-1.csv","legacy","3 2 1 4 7","Lentiform Loewenfeld","3.3.3","2","y","0","left","right","right","left","NA","798","33676","7670","798","NA","2","legacy","5","1024","2","48000","-16","experiment","1","odd","2","198211","199264","3796","119526","199266","186133","3804","111855","201469","203470","204269","200267","37481","203470","NA","Sternberg Task","24","22384","26","yes","1024"
"92.5925925926","92.5925925926","852.962962963","852.962962963","black","experiment","legacy","legacy","legacy","0","uniform","1","undefined","1","right","26","26","0","0","26","26","0","0","26","26","26","26","0","26","0","10/18/20 17:08:29","The main experiment item","yes","SternbergTask.osexp","C:/Users/18177/OneDrive/Documents/School/Grad School/Fall 2020/Lab 3 Sternberg Memory","no","mono","no","18","no","white","no","yes","768","legacy","14","11","C:/Users/18177/OneDrive/Documents/School/Grad School/Fall 2020/Lab 3 Sternberg Memory/subject-1.csv","legacy","7 1","Lentiform Loewenfeld","3.3.3","0","n","0","right","right","right","right","NA","646","33676","7670","646","NA","2","legacy","2","1024","2","48000","-16","experiment","1","odd","8","204282","205337","3796","119526","205339","186133","3804","111855","207541","209542","210188","206340","37481","209542","NA","Sternberg Task","25","23030","27","yes","1024"
"92.8571428571","92.8571428571","847.142857143","847.142857143","black","experiment","legacy","legacy","legacy","0","uniform","1","undefined","1","right","27","27","0","0","27","27","0","0","27","27","27","27","0","27","0","10/18/20 17:08:29","The main experiment item","yes","SternbergTask.osexp","C:/Users/18177/OneDrive/Documents/School/Grad School/Fall 2020/Lab 3 Sternberg Memory","no","mono","no","18","no","white","no","yes","768","legacy","15","11","C:/Users/18177/OneDrive/Documents/School/Grad School/Fall 2020/Lab 3 Sternberg Memory/subject-1.csv","legacy","2 3 8 5 6 7","Lentiform Loewenfeld","3.3.3","0","n","0","right","right","right","right","NA","690","33676","7670","690","NA","2","legacy","6","1024","2","48000","-16","experiment","1","odd","1","210201","211255","3796","119526","211257","186133","3804","111855","213460","215464","216155","212258","37481","215464","NA","Sternberg Task","26","23720","28","yes","1024"
"93.1034482759","93.1034482759","842.655172414","842.655172414","black","experiment","legacy","legacy","legacy","0","uniform","1","undefined","1","right","28","28","0","0","28","28","0","0","28","28","28","28","0","28","0","10/18/20 17:08:29","The main experiment item","yes","SternbergTask.osexp","C:/Users/18177/OneDrive/Documents/School/Grad School/Fall 2020/Lab 3 Sternberg Memory","no","mono","no","18","no","white","no","yes","768","legacy","16","11","C:/Users/18177/OneDrive/Documents/School/Grad School/Fall 2020/Lab 3 Sternberg Memory/subject-1.csv","legacy","2 8 7 9 5 3","Lentiform Loewenfeld","3.3.3","0","n","0","right","right","right","right","NA","717","33676","7670","717","NA","2","legacy","6","1024","2","48000","-16","experiment","1","odd","6","216168","217222","3796","119526","217224","186133","3804","111855","219430","221433","222151","218226","37481","221432","NA","Sternberg Task","27","24437","29","yes","1024"
"93.3333333333","93.3333333333","839.3","839.3","black","experiment","legacy","legacy","legacy","0","uniform","1","undefined","1","right","29","29","0","0","29","29","0","0","29","29","29","29","0","29","0","10/18/20 17:08:29","The main experiment item","yes","SternbergTask.osexp","C:/Users/18177/OneDrive/Documents/School/Grad School/Fall 2020/Lab 3 Sternberg Memory","no","mono","no","18","no","white","no","yes","768","legacy","17","11","C:/Users/18177/OneDrive/Documents/School/Grad School/Fall 2020/Lab 3 Sternberg Memory/subject-1.csv","legacy","6 9 7 3 8 2","Lentiform Loewenfeld","3.3.3","0","n","0","right","right","right","right","NA","742","33676","7670","742","NA","2","legacy","6","1024","2","48000","-16","experiment","1","odd","5","222164","223217","3796","119526","223220","186133","3804","111855","225426","227427","228170","224221","37481","227427","NA","Sternberg Task","28","25179","30","yes","1024"
"93.5483870968","93.5483870968","840.161290323","840.161290323","black","experiment","legacy","legacy","legacy","0","uniform","1","undefined","1","left","30","30","0","0","30","30","0","0","30","30","30","30","0","30","0","10/18/20 17:08:29","The main experiment item","yes","SternbergTask.osexp","C:/Users/18177/OneDrive/Documents/School/Grad School/Fall 2020/Lab 3 Sternberg Memory","no","mono","no","18","no","white","no","yes","768","legacy","18","11","C:/Users/18177/OneDrive/Documents/School/Grad School/Fall 2020/Lab 3 Sternberg Memory/subject-1.csv","legacy","8 9 5 6 7","Lentiform Loewenfeld","3.3.3","1","y","0","left","right","right","left","NA","866","33676","7670","866","NA","2","legacy","5","1024","2","48000","-16","experiment","1","odd","8","228174","229229","3796","119526","229230","186133","3804","111855","231436","233439","234306","230231","37481","233439","NA","Sternberg Task","29","26045","31","yes","1024"
"93.75","93.75","845.625","845.625","black","experiment","legacy","legacy","legacy","0","uniform","1","undefined","1","left","31","31","0","0","31","31","0","0","31","31","31","31","0","31","0","10/18/20 17:08:29","The main experiment item","yes","SternbergTask.osexp","C:/Users/18177/OneDrive/Documents/School/Grad School/Fall 2020/Lab 3 Sternberg Memory","no","mono","no","18","no","white","no","yes","768","legacy","19","11","C:/Users/18177/OneDrive/Documents/School/Grad School/Fall 2020/Lab 3 Sternberg Memory/subject-1.csv","legacy","6 8 9 3 4 9","Lentiform Loewenfeld","3.3.3","5","y","0","left","right","right","left","NA","1015","33676","7670","1015","NA","2","legacy","6","1024","2","48000","-16","experiment","1","odd","4","234317","235371","3796","119526","235373","186133","3804","111855","237577","239578","240594","236374","37481","239578","NA","Sternberg Task","30","27060","32","yes","1024"
"93.9393939394","93.9393939394","844.484848485","844.484848485","black","experiment","legacy","legacy","legacy","0","uniform","1","undefined","1","left","32","32","0","0","32","32","0","0","32","32","32","32","0","32","0","10/18/20 17:08:29","The main experiment item","yes","SternbergTask.osexp","C:/Users/18177/OneDrive/Documents/School/Grad School/Fall 2020/Lab 3 Sternberg Memory","no","mono","no","18","no","white","no","yes","768","legacy","20","11","C:/Users/18177/OneDrive/Documents/School/Grad School/Fall 2020/Lab 3 Sternberg Memory/subject-1.csv","legacy","2 3","Lentiform Loewenfeld","3.3.3","1","y","0","left","right","right","left","NA","808","33676","7670","808","NA","2","legacy","2","1024","2","48000","-16","experiment","1","odd","2","240599","241653","3796","119526","241654","186133","3804","111855","243860","245862","246670","242656","37481","245862","NA","Sternberg Task","31","27868","33","yes","1024"
"94.1176470588","94.1176470588","835.588235294","835.588235294","black","experiment","legacy","legacy","legacy","0","uniform","1","undefined","1","right","33","33","0","0","33","33","0","0","33","33","33","33","0","33","0","10/18/20 17:08:29","The main experiment item","yes","SternbergTask.osexp","C:/Users/18177/OneDrive/Documents/School/Grad School/Fall 2020/Lab 3 Sternberg Memory","no","mono","no","18","no","white","no","yes","768","legacy","21","11","C:/Users/18177/OneDrive/Documents/School/Grad School/Fall 2020/Lab 3 Sternberg Memory/subject-1.csv","legacy","7 9","Lentiform Loewenfeld","3.3.3","0","n","0","right","right","right","right","NA","542","33676","7670","542","NA","2","legacy","2","1024","2","48000","-16","experiment","1","odd","1","246674","247728","3796","119526","247730","186133","3804","111855","249937","251938","252481","248734","37481","251938","NA","Sternberg Task","32","28410","34","yes","1024"
"94.2857142857","94.2857142857","841.914285714","841.914285714","black","experiment","legacy","legacy","legacy","0","uniform","1","undefined","1","right","34","34","0","0","34","34","0","0","34","34","34","34","0","34","0","10/18/20 17:08:29","The main experiment item","yes","SternbergTask.osexp","C:/Users/18177/OneDrive/Documents/School/Grad School/Fall 2020/Lab 3 Sternberg Memory","no","mono","no","18","no","white","no","yes","768","legacy","22","11","C:/Users/18177/OneDrive/Documents/School/Grad School/Fall 2020/Lab 3 Sternberg Memory/subject-1.csv","legacy","1 4 3 6 5","Lentiform Loewenfeld","3.3.3","0","n","0","right","right","right","right","NA","1057","33676","7670","1057","NA","2","legacy","5","1024","2","48000","-16","experiment","1","odd","8","252493","253548","3796","119526","253550","186133","3804","111855","255756","257757","258815","254551","37481","257757","NA","Sternberg Task","33","29467","35","yes","1024"
"94.4444444444","94.4444444444","840.583333333","840.583333333","black","experiment","legacy","legacy","legacy","0","uniform","1","undefined","1","right","35","35","0","0","35","35","0","0","35","35","35","35","0","35","0","10/18/20 17:08:29","The main experiment item","yes","SternbergTask.osexp","C:/Users/18177/OneDrive/Documents/School/Grad School/Fall 2020/Lab 3 Sternberg Memory","no","mono","no","18","no","white","no","yes","768","legacy","23","11","C:/Users/18177/OneDrive/Documents/School/Grad School/Fall 2020/Lab 3 Sternberg Memory/subject-1.csv","legacy","6 7 5 9","Lentiform Loewenfeld","3.3.3","0","n","0","right","right","right","right","NA","794","33676","7670","794","NA","2","legacy","4","1024","2","48000","-16","experiment","1","odd","2","258821","259876","3796","119526","259877","186133","3804","111855","262082","264083","264878","260878","37481","264083","NA","Sternberg Task","34","30261","36","yes","1024"
"94.5945945946","94.5945945946","839.27027027","839.27027027","black","experiment","legacy","legacy","legacy","0","uniform","1","undefined","1","right","36","36","0","0","36","36","0","0","36","36","36","36","0","36","0","10/18/20 17:08:29","The main experiment item","yes","SternbergTask.osexp","C:/Users/18177/OneDrive/Documents/School/Grad School/Fall 2020/Lab 3 Sternberg Memory","no","mono","no","18","no","white","no","yes","768","legacy","24","11","C:/Users/18177/OneDrive/Documents/School/Grad School/Fall 2020/Lab 3 Sternberg Memory/subject-1.csv","legacy","5 7 3","Lentiform Loewenfeld","3.3.3","0","n","0","right","right","right","right","NA","792","33676","7670","792","NA","2","legacy","3","1024","2","48000","-16","experiment","1","odd","9","264890","265944","3796","119526","265946","186133","3804","111855","268151","270152","270945","266947","37481","270152","NA","Sternberg Task","35","31053","37","yes","1024"
"94.7368421053","94.7368421053","834","834","black","experiment","legacy","legacy","legacy","0","uniform","1","undefined","1","right","37","37","0","0","37","37","0","0","37","37","37","37","0","37","0","10/18/20 17:08:29","The main experiment item","yes","SternbergTask.osexp","C:/Users/18177/OneDrive/Documents/School/Grad School/Fall 2020/Lab 3 Sternberg Memory","no","mono","no","18","no","white","no","yes","768","legacy","25","11","C:/Users/18177/OneDrive/Documents/School/Grad School/Fall 2020/Lab 3 Sternberg Memory/subject-1.csv","legacy","2 6 4 3 9","Lentiform Loewenfeld","3.3.3","0","n","0","right","right","right","right","NA","639","33676","7670","639","NA","2","legacy","5","1024","2","48000","-16","experiment","1","odd","1","270948","272003","3796","119526","272004","186133","3804","111855","274210","276211","276850","273006","37481","276211","NA","Sternberg Task","36","31692","38","yes","1024"
"94.8717948718","94.8717948718","831.487179487","831.487179487","black","experiment","legacy","legacy","legacy","0","uniform","1","undefined","1","left","38","38","0","0","38","38","0","0","38","38","38","38","0","38","0","10/18/20 17:08:29","The main experiment item","yes","SternbergTask.osexp","C:/Users/18177/OneDrive/Documents/School/Grad School/Fall 2020/Lab 3 Sternberg Memory","no","mono","no","18","no","white","no","yes","768","legacy","26","11","C:/Users/18177/OneDrive/Documents/School/Grad School/Fall 2020/Lab 3 Sternberg Memory/subject-1.csv","legacy","9 1 6 7 8","Lentiform Loewenfeld","3.3.3","1","y","0","left","right","right","left","NA","736","33676","7670","736","NA","2","legacy","5","1024","2","48000","-16","experiment","1","odd","9","276862","277916","3796","119526","277918","186133","3804","111855","280124","282126","282863","278919","37481","282126","NA","Sternberg Task","37","32428","39","yes","1024"
"92.5","92.5","825.125","825.125","black","experiment","legacy","legacy","legacy","0","uniform","0","undefined","0","left","39","39","0","0","39","39","0","0","39","39","39","39","0","39","0","10/18/20 17:08:29","The main experiment item","yes","SternbergTask.osexp","C:/Users/18177/OneDrive/Documents/School/Grad School/Fall 2020/Lab 3 Sternberg Memory","no","mono","no","18","no","white","no","yes","768","legacy","27","11","C:/Users/18177/OneDrive/Documents/School/Grad School/Fall 2020/Lab 3 Sternberg Memory/subject-1.csv","legacy","5 7 8 2 3 8","Lentiform Loewenfeld","3.3.3","5","y","0","right","right","right","right","NA","577","33676","7670","577","NA","2","legacy","6","1024","2","48000","-16","experiment","1","odd","3","282874","283929","3796","119526","283930","186133","3804","111855","286139","288141","288718","284934","37481","288141","NA","Sternberg Task","37","33005","40","yes","1024"
"92.6829268293","92.6829268293","825.658536585","825.658536585","black","experiment","legacy","legacy","legacy","0","uniform","1","undefined","1","left","40","40","0","0","40","40","0","0","40","40","40","40","0","40","0","10/18/20 17:08:29","The main experiment item","yes","SternbergTask.osexp","C:/Users/18177/OneDrive/Documents/School/Grad School/Fall 2020/Lab 3 Sternberg Memory","no","mono","no","18","no","white","no","yes","768","legacy","28","11","C:/Users/18177/OneDrive/Documents/School/Grad School/Fall 2020/Lab 3 Sternberg Memory/subject-1.csv","legacy","2 5 4 8 7","Lentiform Loewenfeld","3.3.3","3","y","0","left","right","right","left","NA","847","33676","7670","847","NA","2","legacy","5","1024","2","48000","-16","experiment","1","odd","4","282874","289783","3796","119526","289785","288729","3804","111855","291989","293990","294838","290786","37481","293990","NA","Sternberg Task","38","33852","41","yes","1024"
"92.8571428571","92.8571428571","826.547619048","826.547619048","black","experiment","legacy","legacy","legacy","0","uniform","1","undefined","1","right","41","41","0","0","41","41","0","0","41","41","41","41","0","41","0","10/18/20 17:08:29","The main experiment item","yes","SternbergTask.osexp","C:/Users/18177/OneDrive/Documents/School/Grad School/Fall 2020/Lab 3 Sternberg Memory","no","mono","no","18","no","white","no","yes","768","legacy","29","11","C:/Users/18177/OneDrive/Documents/School/Grad School/Fall 2020/Lab 3 Sternberg Memory/subject-1.csv","legacy","4 2 7 6 1 3","Lentiform Loewenfeld","3.3.3","0","n","0","right","right","right","right","NA","863","33676","7670","863","NA","2","legacy","6","1024","2","48000","-16","experiment","1","odd","8","294850","295904","3796","119526","295906","288729","3804","111855","298112","300113","300976","296907","37481","300113","NA","Sternberg Task","39","34715","42","yes","1024"
"93.023255814","93.023255814","826.930232558","826.930232558","black","experiment","legacy","legacy","legacy","0","uniform","1","undefined","1","right","42","42","0","0","42","42","0","0","42","42","42","42","0","42","0","10/18/20 17:08:29","The main experiment item","yes","SternbergTask.osexp","C:/Users/18177/OneDrive/Documents/School/Grad School/Fall 2020/Lab 3 Sternberg Memory","no","mono","no","18","no","white","no","yes","768","legacy","30","11","C:/Users/18177/OneDrive/Documents/School/Grad School/Fall 2020/Lab 3 Sternberg Memory/subject-1.csv","legacy","8 5 7 3 6","Lentiform Loewenfeld","3.3.3","0","n","0","right","right","right","right","NA","843","33676","7670","843","NA","2","legacy","5","1024","2","48000","-16","experiment","1","odd","9","300990","302044","3796","119526","302045","288729","3804","111855","304250","306251","307095","303047","37481","306251","NA","Sternberg Task","40","35558","43","yes","1024"
"93.1818181818","93.1818181818","824.568181818","824.568181818","black","experiment","legacy","legacy","legacy","0","uniform","1","undefined","1","right","43","43","0","0","43","43","0","0","43","43","43","43","0","43","0","10/18/20 17:08:29","The main experiment item","yes","SternbergTask.osexp","C:/Users/18177/OneDrive/Documents/School/Grad School/Fall 2020/Lab 3 Sternberg Memory","no","mono","no","18","no","white","no","yes","768","legacy","31","11","C:/Users/18177/OneDrive/Documents/School/Grad School/Fall 2020/Lab 3 Sternberg Memory/subject-1.csv","legacy","9 8 2 7 4","Lentiform Loewenfeld","3.3.3","0","n","0","right","right","right","right","NA","723","33676","7670","723","NA","2","legacy","5","1024","2","48000","-16","experiment","1","odd","5","307107","308173","3796","119526","308175","288729","3804","111855","310381","312382","313106","309176","37481","312382","NA","Sternberg Task","41","36281","44","yes","1024"
"93.3333333333","93.3333333333","819.377777778","819.377777778","black","experiment","legacy","legacy","legacy","0","uniform","1","undefined","1","left","44","44","0","0","44","44","0","0","44","44","44","44","0","44","0","10/18/20 17:08:29","The main experiment item","yes","SternbergTask.osexp","C:/Users/18177/OneDrive/Documents/School/Grad School/Fall 2020/Lab 3 Sternberg Memory","no","mono","no","18","no","white","no","yes","768","legacy","32","11","C:/Users/18177/OneDrive/Documents/School/Grad School/Fall 2020/Lab 3 Sternberg Memory/subject-1.csv","legacy","8 1 6","Lentiform Loewenfeld","3.3.3","3","y","0","left","right","right","left","NA","591","33676","7670","591","NA","2","legacy","3","1024","2","48000","-16","experiment","1","odd","6","313118","314172","3796","119526","314173","288729","3804","111855","316376","318377","318969","315175","37481","318377","NA","Sternberg Task","42","36872","45","yes","1024"
"93.4782608696","93.4782608696","818.347826087","818.347826087","black","experiment","legacy","legacy","legacy","0","uniform","1","undefined","1","right","45","45","0","0","45","45","0","0","45","45","45","45","0","45","0","10/18/20 17:08:29","The main experiment item","yes","SternbergTask.osexp","C:/Users/18177/OneDrive/Documents/School/Grad School/Fall 2020/Lab 3 Sternberg Memory","no","mono","no","18","no","white","no","yes","768","legacy","33","11","C:/Users/18177/OneDrive/Documents/School/Grad School/Fall 2020/Lab 3 Sternberg Memory/subject-1.csv","legacy","8 4 3 9","Lentiform Loewenfeld","3.3.3","0","n","0","right","right","right","right","NA","772","33676","7670","772","NA","2","legacy","4","1024","2","48000","-16","experiment","1","odd","5","318980","320034","3796","119526","320036","288729","3804","111855","322242","324243","325016","321037","37481","324243","NA","Sternberg Task","43","37644","46","yes","1024"
"93.6170212766","93.6170212766","816.063829787","816.063829787","black","experiment","legacy","legacy","legacy","0","uniform","1","undefined","1","right","46","46","0","0","46","46","0","0","46","46","46","46","0","46","0","10/18/20 17:08:29","The main experiment item","yes","SternbergTask.osexp","C:/Users/18177/OneDrive/Documents/School/Grad School/Fall 2020/Lab 3 Sternberg Memory","no","mono","no","18","no","white","no","yes","768","legacy","34","11","C:/Users/18177/OneDrive/Documents/School/Grad School/Fall 2020/Lab 3 Sternberg Memory/subject-1.csv","legacy","7 6 4 8 1 2","Lentiform Loewenfeld","3.3.3","0","n","0","right","right","right","right","NA","711","33676","7670","711","NA","2","legacy","6","1024","2","48000","-16","experiment","1","odd","9","325028","326082","3796","119526","326084","288729","3804","111855","328289","330290","331002","327085","37481","330290","NA","Sternberg Task","44","38355","47","yes","1024"
"93.75","93.75","812.020833333","812.020833333","black","experiment","legacy","legacy","legacy","0","uniform","1","undefined","1","right","47","47","0","0","47","47","0","0","47","47","47","47","0","47","0","10/18/20 17:08:29","The main experiment item","yes","SternbergTask.osexp","C:/Users/18177/OneDrive/Documents/School/Grad School/Fall 2020/Lab 3 Sternberg Memory","no","mono","no","18","no","white","no","yes","768","legacy","35","11","C:/Users/18177/OneDrive/Documents/School/Grad School/Fall 2020/Lab 3 Sternberg Memory/subject-1.csv","legacy","1 8 7","Lentiform Loewenfeld","3.3.3","0","n","0","right","right","right","right","NA","622","33676","7670","622","NA","2","legacy","3","1024","2","48000","-16","experiment","1","odd","4","331007","332074","3796","119526","332075","288729","3804","111855","334280","336281","336903","333077","37481","336281","NA","Sternberg Task","45","38977","48","yes","1024"
"93.8775510204","93.8775510204","814.183673469","814.183673469","black","experiment","legacy","legacy","legacy","0","uniform","1","undefined","1","right","48","48","0","0","48","48","0","0","48","48","48","48","0","48","0","10/18/20 17:08:29","The main experiment item","yes","SternbergTask.osexp","C:/Users/18177/OneDrive/Documents/School/Grad School/Fall 2020/Lab 3 Sternberg Memory","no","mono","no","18","no","white","no","yes","768","legacy","36","11","C:/Users/18177/OneDrive/Documents/School/Grad School/Fall 2020/Lab 3 Sternberg Memory/subject-1.csv","legacy","6 9 4 5 3 2","Lentiform Loewenfeld","3.3.3","0","n","0","right","right","right","right","NA","918","33676","7670","918","NA","2","legacy","6","1024","2","48000","-16","experiment","1","odd","8","336917","337971","3796","119526","337973","288729","3804","111855","340177","342178","343097","338974","37481","342178","NA","Sternberg Task","46","39895","49","yes","1024"
"94","94","811.4","811.4","black","experiment","legacy","legacy","legacy","0","uniform","1","undefined","1","right","49","49","0","0","49","49","0","0","49","49","49","49","0","49","0","10/18/20 17:08:29","The main experiment item","yes","SternbergTask.osexp","C:/Users/18177/OneDrive/Documents/School/Grad School/Fall 2020/Lab 3 Sternberg Memory","no","mono","no","18","no","white","no","yes","768","legacy","37","11","C:/Users/18177/OneDrive/Documents/School/Grad School/Fall 2020/Lab 3 Sternberg Memory/subject-1.csv","legacy","4 1","Lentiform Loewenfeld","3.3.3","0","n","0","right","right","right","right","NA","675","33676","7670","675","NA","2","legacy","2","1024","2","48000","-16","experiment","1","odd","6","343109","344164","3796","119526","344165","288729","3804","111855","346368","348369","349044","345166","37481","348369","NA","Sternberg Task","47","40570","50","yes","1024"
"92.1568627451","92.1568627451","811.352941176","811.352941176","black","experiment","legacy","legacy","legacy","0","uniform","0","undefined","0","left","50","50","0","0","50","50","0","0","50","50","50","50","0","50","0","10/18/20 17:08:29","The main experiment item","yes","SternbergTask.osexp","C:/Users/18177/OneDrive/Documents/School/Grad School/Fall 2020/Lab 3 Sternberg Memory","no","mono","no","18","no","white","no","yes","768","legacy","38","11","C:/Users/18177/OneDrive/Documents/School/Grad School/Fall 2020/Lab 3 Sternberg Memory/subject-1.csv","legacy","2 6 1 7 4","Lentiform Loewenfeld","3.3.3","2","y","0","right","right","right","right","NA","809","33676","7670","809","NA","2","legacy","5","1024","2","48000","-16","experiment","1","odd","6","349058","350111","3796","119526","350113","288729","3804","111855","352319","354320","355130","351114","37481","354320","NA","Sternberg Task","47","41379","51","yes","1024"
"92.3076923077","92.3076923077","826.365384615","826.365384615","black","experiment","legacy","legacy","legacy","0","uniform","1","undefined","1","right","51","51","0","0","51","51","0","0","51","51","51","51","0","51","0","10/18/20 17:08:29","The main experiment item","yes","SternbergTask.osexp","C:/Users/18177/OneDrive/Documents/School/Grad School/Fall 2020/Lab 3 Sternberg Memory","no","mono","no","18","no","white","no","yes","768","legacy","39","11","C:/Users/18177/OneDrive/Documents/School/Grad School/Fall 2020/Lab 3 Sternberg Memory/subject-1.csv","legacy","8 6 3 4 7","Lentiform Loewenfeld","3.3.3","0","n","0","right","right","right","right","NA","1592","33676","7670","1592","NA","2","legacy","5","1024","2","48000","-16","experiment","1","odd","1","349058","356197","3796","119526","356199","355143","3804","111855","358404","360405","361998","357200","37481","360405","NA","Sternberg Task","48","42971","52","yes","1024"
"92.4528301887","92.4528301887","832","832","black","experiment","legacy","legacy","legacy","0","uniform","1","undefined","1","right","52","52","0","0","52","52","0","0","52","52","52","52","0","52","0","10/18/20 17:08:29","The main experiment item","yes","SternbergTask.osexp","C:/Users/18177/OneDrive/Documents/School/Grad School/Fall 2020/Lab 3 Sternberg Memory","no","mono","no","18","no","white","no","yes","768","legacy","40","11","C:/Users/18177/OneDrive/Documents/School/Grad School/Fall 2020/Lab 3 Sternberg Memory/subject-1.csv","legacy","4 2 6 9","Lentiform Loewenfeld","3.3.3","0","n","0","right","right","right","right","NA","1125","33676","7670","1125","NA","2","legacy","4","1024","2","48000","-16","experiment","1","odd","7","362010","363065","3796","119526","363067","355143","3804","111855","365272","367273","368398","364068","37481","367273","NA","Sternberg Task","49","44096","53","yes","1024"
"92.5925925926","92.5925925926","836.333333333","836.333333333","black","experiment","legacy","legacy","legacy","0","uniform","1","undefined","1","right","53","53","0","0","53","53","0","0","53","53","53","53","0","53","0","10/18/20 17:08:29","The main experiment item","yes","SternbergTask.osexp","C:/Users/18177/OneDrive/Documents/School/Grad School/Fall 2020/Lab 3 Sternberg Memory","no","mono","no","18","no","white","no","yes","768","legacy","41","11","C:/Users/18177/OneDrive/Documents/School/Grad School/Fall 2020/Lab 3 Sternberg Memory/subject-1.csv","legacy","1 5 3 2 8","Lentiform Loewenfeld","3.3.3","0","n","0","right","right","right","right","NA","1066","33676","7670","1066","NA","2","legacy","5","1024","2","48000","-16","experiment","1","odd","4","368402","369457","3796","119526","369460","355143","3804","111855","371662","373663","374730","370461","37481","373663","NA","Sternberg Task","50","45162","54","yes","1024"
"92.7272727273","92.7272727273","834.181818182","834.181818182","black","experiment","legacy","legacy","legacy","0","uniform","1","undefined","1","right","54","54","0","0","54","54","0","0","54","54","54","54","0","54","0","10/18/20 17:08:29","The main experiment item","yes","SternbergTask.osexp","C:/Users/18177/OneDrive/Documents/School/Grad School/Fall 2020/Lab 3 Sternberg Memory","no","mono","no","18","no","white","no","yes","768","legacy","42","11","C:/Users/18177/OneDrive/Documents/School/Grad School/Fall 2020/Lab 3 Sternberg Memory/subject-1.csv","legacy","8 9","Lentiform Loewenfeld","3.3.3","0","n","0","right","right","right","right","NA","718","33676","7670","718","NA","2","legacy","2","1024","2","48000","-16","experiment","1","odd","5","374741","375795","3796","119526","375796","355143","3804","111855","378003","380004","380723","376799","37481","380004","NA","Sternberg Task","51","45880","55","yes","1024"
"92.8571428571","92.8571428571","836.892857143","836.892857143","black","experiment","legacy","legacy","legacy","0","uniform","1","undefined","1","left","55","55","0","0","55","55","0","0","55","55","55","55","0","55","0","10/18/20 17:08:29","The main experiment item","yes","SternbergTask.osexp","C:/Users/18177/OneDrive/Documents/School/Grad School/Fall 2020/Lab 3 Sternberg Memory","no","mono","no","18","no","white","no","yes","768","legacy","43","11","C:/Users/18177/OneDrive/Documents/School/Grad School/Fall 2020/Lab 3 Sternberg Memory/subject-1.csv","legacy","3 5 7 1","Lentiform Loewenfeld","3.3.3","3","y","0","left","right","right","left","NA","986","33676","7670","986","NA","2","legacy","4","1024","2","48000","-16","experiment","1","odd","7","380734","381790","3796","119526","381792","355143","3804","111855","383997","385998","386985","382793","37481","385998","NA","Sternberg Task","52","46866","56","yes","1024"
"92.9824561404","92.9824561404","837.298245614","837.298245614","black","experiment","legacy","legacy","legacy","0","uniform","1","undefined","1","left","56","56","0","0","56","56","0","0","56","56","56","56","0","56","0","10/18/20 17:08:29","The main experiment item","yes","SternbergTask.osexp","C:/Users/18177/OneDrive/Documents/School/Grad School/Fall 2020/Lab 3 Sternberg Memory","no","mono","no","18","no","white","no","yes","768","legacy","44","11","C:/Users/18177/OneDrive/Documents/School/Grad School/Fall 2020/Lab 3 Sternberg Memory/subject-1.csv","legacy","5 2 9 6 1 7","Lentiform Loewenfeld","3.3.3","3","y","0","left","right","right","left","NA","860","33676","7670","860","NA","2","legacy","6","1024","2","48000","-16","experiment","1","odd","9","386997","388052","3796","119526","388053","355143","3804","111855","390260","392261","393122","389055","37481","392261","NA","Sternberg Task","53","47726","57","yes","1024"
"93.1034482759","93.1034482759","835.637931034","835.637931034","black","experiment","legacy","legacy","legacy","0","uniform","1","undefined","1","right","57","57","0","0","57","57","0","0","57","57","57","57","0","57","0","10/18/20 17:08:29","The main experiment item","yes","SternbergTask.osexp","C:/Users/18177/OneDrive/Documents/School/Grad School/Fall 2020/Lab 3 Sternberg Memory","no","mono","no","18","no","white","no","yes","768","legacy","45","11","C:/Users/18177/OneDrive/Documents/School/Grad School/Fall 2020/Lab 3 Sternberg Memory/subject-1.csv","legacy","6 2 9 3 8 4","Lentiform Loewenfeld","3.3.3","0","n","0","right","right","right","right","NA","741","33676","7670","741","NA","2","legacy","6","1024","2","48000","-16","experiment","1","odd","1","393134","394190","3796","119526","394192","355143","3804","111855","396397","398398","399140","395193","37481","398398","NA","Sternberg Task","54","48467","58","yes","1024"
"93.2203389831","93.2203389831","830.813559322","830.813559322","black","experiment","legacy","legacy","legacy","0","uniform","1","undefined","1","right","58","58","0","0","58","58","0","0","58","58","58","58","0","58","0","10/18/20 17:08:29","The main experiment item","yes","SternbergTask.osexp","C:/Users/18177/OneDrive/Documents/School/Grad School/Fall 2020/Lab 3 Sternberg Memory","no","mono","no","18","no","white","no","yes","768","legacy","46","11","C:/Users/18177/OneDrive/Documents/School/Grad School/Fall 2020/Lab 3 Sternberg Memory/subject-1.csv","legacy","5 2","Lentiform Loewenfeld","3.3.3","0","n","0","right","right","right","right","NA","551","33676","7670","551","NA","2","legacy","2","1024","2","48000","-16","experiment","1","odd","7","399152","400207","3796","119526","400208","355143","3804","111855","402415","404417","404969","401211","37481","404417","NA","Sternberg Task","55","49018","59","yes","1024"
"93.3333333333","93.3333333333","827.733333333","827.733333333","black","experiment","legacy","legacy","legacy","0","uniform","1","undefined","1","left","59","59","0","0","59","59","0","0","59","59","59","59","0","59","0","10/18/20 17:08:29","The main experiment item","yes","SternbergTask.osexp","C:/Users/18177/OneDrive/Documents/School/Grad School/Fall 2020/Lab 3 Sternberg Memory","no","mono","no","18","no","white","no","yes","768","legacy","47","11","C:/Users/18177/OneDrive/Documents/School/Grad School/Fall 2020/Lab 3 Sternberg Memory/subject-1.csv","legacy","4 6 5 8","Lentiform Loewenfeld","3.3.3","1","y","0","left","right","right","left","NA","646","33676","7670","646","NA","2","legacy","4","1024","2","48000","-16","experiment","1","odd","4","404981","406035","3796","119526","406036","355143","3804","111855","408241","410242","410889","407039","37481","410242","NA","Sternberg Task","56","49664","60","yes","1024"
"91.8032786885","91.8032786885","828.901639344","828.901639344","black","experiment","legacy","legacy","legacy","0","uniform","0","undefined","0","left","60","60","0","0","60","60","0","0","60","60","60","60","0","60","0","10/18/20 17:08:29","The main experiment item","yes","SternbergTask.osexp","C:/Users/18177/OneDrive/Documents/School/Grad School/Fall 2020/Lab 3 Sternberg Memory","no","mono","no","18","no","white","no","yes","768","legacy","48","11","C:/Users/18177/OneDrive/Documents/School/Grad School/Fall 2020/Lab 3 Sternberg Memory/subject-1.csv","legacy","9 1 7 2","Lentiform Loewenfeld","3.3.3","2","y","0","right","right","right","right","NA","899","33676","7670","899","NA","2","legacy","4","1024","2","48000","-16","experiment","1","odd","1","410894","411949","3796","119526","411952","355143","3804","111855","414158","416160","417060","412953","37481","416159","NA","Sternberg Task","56","50563","61","yes","1024"
"91.935483871","91.935483871","833.741935484","833.741935484","black","experiment","legacy","legacy","legacy","0","uniform","1","undefined","1","left","61","61","0","0","61","61","0","0","61","61","61","61","0","61","0","10/18/20 17:08:29","The main experiment item","yes","SternbergTask.osexp","C:/Users/18177/OneDrive/Documents/School/Grad School/Fall 2020/Lab 3 Sternberg Memory","no","mono","no","18","no","white","no","yes","768","legacy","49","11","C:/Users/18177/OneDrive/Documents/School/Grad School/Fall 2020/Lab 3 Sternberg Memory/subject-1.csv","legacy","7 8 6 3 1","Lentiform Loewenfeld","3.3.3","5","y","0","left","right","right","left","NA","1129","33676","7670","1129","NA","2","legacy","5","1024","2","48000","-16","experiment","1","odd","1","410894","418127","3796","119526","418128","417072","3804","111855","420333","422335","423465","419130","37481","422335","NA","Sternberg Task","57","51692","62","yes","1024"
"92.0634920635","92.0634920635","831.666666667","831.666666667","black","experiment","legacy","legacy","legacy","0","uniform","1","undefined","1","right","62","62","0","0","62","62","0","0","62","62","62","62","0","62","0","10/18/20 17:08:29","The main experiment item","yes","SternbergTask.osexp","C:/Users/18177/OneDrive/Documents/School/Grad School/Fall 2020/Lab 3 Sternberg Memory","no","mono","no","18","no","white","no","yes","768","legacy","50","11","C:/Users/18177/OneDrive/Documents/School/Grad School/Fall 2020/Lab 3 Sternberg Memory/subject-1.csv","legacy","8 4 3 5","Lentiform Loewenfeld","3.3.3","0","n","0","right","right","right","right","NA","703","33676","7670","703","NA","2","legacy","4","1024","2","48000","-16","experiment","1","odd","6","423476","424539","3796","119526","424540","417072","3804","111855","426745","428746","429449","425541","37481","428746","NA","Sternberg Task","58","52395","63","yes","1024"
"92.1875","92.1875","834.078125","834.078125","black","experiment","legacy","legacy","legacy","0","uniform","1","undefined","1","left","63","63","0","0","63","63","0","0","63","63","63","63","0","63","0","10/18/20 17:08:29","The main experiment item","yes","SternbergTask.osexp","C:/Users/18177/OneDrive/Documents/School/Grad School/Fall 2020/Lab 3 Sternberg Memory","no","mono","no","18","no","white","no","yes","768","legacy","51","11","C:/Users/18177/OneDrive/Documents/School/Grad School/Fall 2020/Lab 3 Sternberg Memory/subject-1.csv","legacy","3 5 9 6 2 4","Lentiform Loewenfeld","3.3.3","1","y","0","left","right","right","left","NA","986","33676","7670","986","NA","2","legacy","6","1024","2","48000","-16","experiment","1","odd","3","429458","430512","3796","119526","430514","417072","3804","111855","432722","434723","435710","431518","37481","434723","NA","Sternberg Task","59","53381","64","yes","1024"
"90.7692307692","90.7692307692","841.307692308","841.307692308","black","experiment","legacy","legacy","legacy","0","uniform","0","undefined","0","left","64","64","0","0","64","64","0","0","64","64","64","64","0","64","0","10/18/20 17:08:29","The main experiment item","yes","SternbergTask.osexp","C:/Users/18177/OneDrive/Documents/School/Grad School/Fall 2020/Lab 3 Sternberg Memory","no","mono","no","18","no","white","no","yes","768","legacy","52","11","C:/Users/18177/OneDrive/Documents/School/Grad School/Fall 2020/Lab 3 Sternberg Memory/subject-1.csv","legacy","3 4 9 6 2 9","Lentiform Loewenfeld","3.3.3","5","y","0","right","right","right","right","NA","1304","33676","7670","1304","NA","2","legacy","6","1024","2","48000","-16","experiment","1","odd","2","435716","436770","3796","119526","436772","417072","3804","111855","438978","440979","442284","437774","37481","440979","NA","Sternberg Task","59","54685","65","yes","1024"
"90.9090909091","90.9090909091","843.151515152","843.151515152","black","experiment","legacy","legacy","legacy","0","uniform","1","undefined","1","left","65","65","0","0","65","65","0","0","65","65","65","65","0","65","0","10/18/20 17:08:29","The main experiment item","yes","SternbergTask.osexp","C:/Users/18177/OneDrive/Documents/School/Grad School/Fall 2020/Lab 3 Sternberg Memory","no","mono","no","18","no","white","no","yes","768","legacy","53","11","C:/Users/18177/OneDrive/Documents/School/Grad School/Fall 2020/Lab 3 Sternberg Memory/subject-1.csv","legacy","8 5 3 7 4 6","Lentiform Loewenfeld","3.3.3","6","y","0","left","right","right","left","NA","963","33676","7670","963","NA","2","legacy","6","1024","2","48000","-16","experiment","1","odd","6","435716","443345","3796","119526","443347","442289","3804","111855","445551","447552","448516","444348","37481","447552","NA","Sternberg Task","60","55648","66","yes","1024"
"91.0447761194","91.0447761194","839.52238806","839.52238806","black","experiment","legacy","legacy","legacy","0","uniform","1","undefined","1","right","66","66","0","0","66","66","0","0","66","66","66","66","0","66","0","10/18/20 17:08:29","The main experiment item","yes","SternbergTask.osexp","C:/Users/18177/OneDrive/Documents/School/Grad School/Fall 2020/Lab 3 Sternberg Memory","no","mono","no","18","no","white","no","yes","768","legacy","54","11","C:/Users/18177/OneDrive/Documents/School/Grad School/Fall 2020/Lab 3 Sternberg Memory/subject-1.csv","legacy","6 8 4","Lentiform Loewenfeld","3.3.3","0","n","0","right","right","right","right","NA","600","33676","7670","600","NA","2","legacy","3","1024","2","48000","-16","experiment","1","odd","1","448528","449594","3796","119526","449595","442289","3804","111855","451800","453801","454402","450598","37481","453801","NA","Sternberg Task","61","56248","67","yes","1024"
"91.1764705882","91.1764705882","841.426470588","841.426470588","black","experiment","legacy","legacy","legacy","0","uniform","1","undefined","1","right","67","67","0","0","67","67","0","0","67","67","67","67","0","67","0","10/18/20 17:08:29","The main experiment item","yes","SternbergTask.osexp","C:/Users/18177/OneDrive/Documents/School/Grad School/Fall 2020/Lab 3 Sternberg Memory","no","mono","no","18","no","white","no","yes","768","legacy","55","11","C:/Users/18177/OneDrive/Documents/School/Grad School/Fall 2020/Lab 3 Sternberg Memory/subject-1.csv","legacy","6 8","Lentiform Loewenfeld","3.3.3","0","n","0","right","right","right","right","NA","969","33676","7670","969","NA","2","legacy","2","1024","2","48000","-16","experiment","1","odd","9","454416","455470","3796","119526","455472","442289","3804","111855","457673","459674","460644","456472","37481","459674","NA","Sternberg Task","62","57217","68","yes","1024"
"91.3043478261","91.3043478261","843.028985507","843.028985507","black","experiment","legacy","legacy","legacy","0","uniform","1","undefined","1","left","68","68","0","0","68","68","0","0","68","68","68","68","0","68","0","10/18/20 17:08:29","The main experiment item","yes","SternbergTask.osexp","C:/Users/18177/OneDrive/Documents/School/Grad School/Fall 2020/Lab 3 Sternberg Memory","no","mono","no","18","no","white","no","yes","768","legacy","56","11","C:/Users/18177/OneDrive/Documents/School/Grad School/Fall 2020/Lab 3 Sternberg Memory/subject-1.csv","legacy","4 9 7 8 5 3","Lentiform Loewenfeld","3.3.3","4","y","0","left","right","right","left","NA","952","33676","7670","952","NA","2","legacy","6","1024","2","48000","-16","experiment","1","odd","8","460656","461710","3796","119526","461712","442289","3804","111855","463917","465918","466871","462713","37481","465918","NA","Sternberg Task","63","58169","69","yes","1024"
"91.4285714286","91.4285714286","846.485714286","846.485714286","black","experiment","legacy","legacy","legacy","0","uniform","1","undefined","1","left","69","69","0","0","69","69","0","0","69","69","69","69","0","69","0","10/18/20 17:08:29","The main experiment item","yes","SternbergTask.osexp","C:/Users/18177/OneDrive/Documents/School/Grad School/Fall 2020/Lab 3 Sternberg Memory","no","mono","no","18","no","white","no","yes","768","legacy","57","11","C:/Users/18177/OneDrive/Documents/School/Grad School/Fall 2020/Lab 3 Sternberg Memory/subject-1.csv","legacy","4 1 8 7 5","Lentiform Loewenfeld","3.3.3","3","y","0","left","right","right","left","NA","1085","33676","7670","1085","NA","2","legacy","5","1024","2","48000","-16","experiment","1","odd","8","466875","467943","3796","119526","467945","442289","3804","111855","470150","472151","473237","468947","37481","472151","NA","Sternberg Task","64","59254","70","yes","1024"
"91.5492957746","91.5492957746","848.070422535","848.070422535","black","experiment","legacy","legacy","legacy","0","uniform","1","undefined","1","right","70","70","0","0","70","70","0","0","70","70","70","70","0","70","0","10/18/20 17:08:29","The main experiment item","yes","SternbergTask.osexp","C:/Users/18177/OneDrive/Documents/School/Grad School/Fall 2020/Lab 3 Sternberg Memory","no","mono","no","18","no","white","no","yes","768","legacy","58","11","C:/Users/18177/OneDrive/Documents/School/Grad School/Fall 2020/Lab 3 Sternberg Memory/subject-1.csv","legacy","8 5 4 2 9 6","Lentiform Loewenfeld","3.3.3","0","n","0","right","right","right","right","NA","959","33676","7670","959","NA","2","legacy","6","1024","2","48000","-16","experiment","1","odd","3","473249","474303","3796","119526","474306","442289","3804","111855","476507","478508","479468","475307","37481","478508","NA","Sternberg Task","65","60213","71","yes","1024"
"91.6666666667","91.6666666667","846.583333333","846.583333333","black","experiment","legacy","legacy","legacy","0","uniform","1","undefined","1","right","71","71","0","0","71","71","0","0","71","71","71","71","0","71","0","10/18/20 17:08:29","The main experiment item","yes","SternbergTask.osexp","C:/Users/18177/OneDrive/Documents/School/Grad School/Fall 2020/Lab 3 Sternberg Memory","no","mono","no","18","no","white","no","yes","768","legacy","59","11","C:/Users/18177/OneDrive/Documents/School/Grad School/Fall 2020/Lab 3 Sternberg Memory/subject-1.csv","legacy","1 6 4","Lentiform Loewenfeld","3.3.3","0","n","0","right","right","right","right","NA","741","33676","7670","741","NA","2","legacy","3","1024","2","48000","-16","experiment","1","odd","7","479479","480534","3796","119526","480536","442289","3804","111855","482745","484747","485488","481541","37481","484747","NA","Sternberg Task","66","60954","72","yes","1024"
"91.7808219178","91.7808219178","850.219178082","850.219178082","black","experiment","legacy","legacy","legacy","0","uniform","1","undefined","1","right","72","72","0","0","72","72","0","0","72","72","72","72","0","72","0","10/18/20 17:08:29","The main experiment item","yes","SternbergTask.osexp","C:/Users/18177/OneDrive/Documents/School/Grad School/Fall 2020/Lab 3 Sternberg Memory","no","mono","no","18","no","white","no","yes","768","legacy","60","11","C:/Users/18177/OneDrive/Documents/School/Grad School/Fall 2020/Lab 3 Sternberg Memory/subject-1.csv","legacy","1 6 4 3 9 7","Lentiform Loewenfeld","3.3.3","0","n","0","right","right","right","right","NA","1112","33676","7670","1112","NA","2","legacy","6","1024","2","48000","-16","experiment","1","odd","8","485501","486555","3796","119526","486557","442289","3804","111855","488761","490762","491875","487558","37481","490762","NA","Sternberg Task","67","62066","73","yes","1024"
"91.8918918919","91.8918918919","856.243243243","856.243243243","black","experiment","legacy","legacy","legacy","0","uniform","1","undefined","1","right","73","73","0","0","73","73","0","0","73","73","73","73","0","73","0","10/18/20 17:08:29","The main experiment item","yes","SternbergTask.osexp","C:/Users/18177/OneDrive/Documents/School/Grad School/Fall 2020/Lab 3 Sternberg Memory","no","mono","no","18","no","white","no","yes","768","legacy","61","11","C:/Users/18177/OneDrive/Documents/School/Grad School/Fall 2020/Lab 3 Sternberg Memory/subject-1.csv","legacy","1 4 9 3","Lentiform Loewenfeld","3.3.3","0","n","0","right","right","right","right","NA","1296","33676","7670","1296","NA","2","legacy","4","1024","2","48000","-16","experiment","1","odd","5","491879","492934","3796","119526","492935","442289","3804","111855","495141","497142","498439","493937","37481","497142","NA","Sternberg Task","68","63362","74","yes","1024"
"92","92","857.226666667","857.226666667","black","experiment","legacy","legacy","legacy","0","uniform","1","undefined","1","right","74","74","0","0","74","74","0","0","74","74","74","74","0","74","0","10/18/20 17:08:29","The main experiment item","yes","SternbergTask.osexp","C:/Users/18177/OneDrive/Documents/School/Grad School/Fall 2020/Lab 3 Sternberg Memory","no","mono","no","18","no","white","no","yes","768","legacy","62","11","C:/Users/18177/OneDrive/Documents/School/Grad School/Fall 2020/Lab 3 Sternberg Memory/subject-1.csv","legacy","7 4 2 8 1 9","Lentiform Loewenfeld","3.3.3","0","n","0","right","right","right","right","NA","930","33676","7670","930","NA","2","legacy","6","1024","2","48000","-16","experiment","1","odd","5","498451","499506","3796","119526","499508","442289","3804","111855","501710","503711","504642","500509","37481","503711","NA","Sternberg Task","69","64292","75","yes","1024"
"92.1052631579","92.1052631579","857.565789474","857.565789474","black","experiment","legacy","legacy","legacy","0","uniform","1","undefined","1","left","75","75","0","0","75","75","0","0","75","75","75","75","0","75","0","10/18/20 17:08:29","The main experiment item","yes","SternbergTask.osexp","C:/Users/18177/OneDrive/Documents/School/Grad School/Fall 2020/Lab 3 Sternberg Memory","no","mono","no","18","no","white","no","yes","768","legacy","63","11","C:/Users/18177/OneDrive/Documents/School/Grad School/Fall 2020/Lab 3 Sternberg Memory/subject-1.csv","legacy","9 3 8 2 1 4","Lentiform Loewenfeld","3.3.3","3","y","0","left","right","right","left","NA","883","33676","7670","883","NA","2","legacy","6","1024","2","48000","-16","experiment","1","odd","8","504655","505711","3796","119526","505712","442289","3804","111855","507914","509916","510800","506713","37481","509916","NA","Sternberg Task","70","65175","76","yes","1024"
"92.2077922078","92.2077922078","855.194805195","855.194805195","black","experiment","legacy","legacy","legacy","0","uniform","1","undefined","1","right","76","76","0","0","76","76","0","0","76","76","76","76","0","76","0","10/18/20 17:08:29","The main experiment item","yes","SternbergTask.osexp","C:/Users/18177/OneDrive/Documents/School/Grad School/Fall 2020/Lab 3 Sternberg Memory","no","mono","no","18","no","white","no","yes","768","legacy","64","11","C:/Users/18177/OneDrive/Documents/School/Grad School/Fall 2020/Lab 3 Sternberg Memory/subject-1.csv","legacy","6 9 4 5 2","Lentiform Loewenfeld","3.3.3","0","n","0","right","right","right","right","NA","675","33676","7670","675","NA","2","legacy","5","1024","2","48000","-16","experiment","1","odd","1","510813","511871","3796","119526","511873","442289","3804","111855","514079","516081","516757","512874","37481","516081","NA","Sternberg Task","71","65850","77","yes","1024"
"92.3076923077","92.3076923077","856.794871795","856.794871795","black","experiment","legacy","legacy","legacy","0","uniform","1","undefined","1","left","77","77","0","0","77","77","0","0","77","77","77","77","0","77","0","10/18/20 17:08:29","The main experiment item","yes","SternbergTask.osexp","C:/Users/18177/OneDrive/Documents/School/Grad School/Fall 2020/Lab 3 Sternberg Memory","no","mono","no","18","no","white","no","yes","768","legacy","65","11","C:/Users/18177/OneDrive/Documents/School/Grad School/Fall 2020/Lab 3 Sternberg Memory/subject-1.csv","legacy","2 8 5 1","Lentiform Loewenfeld","3.3.3","4","y","0","left","right","right","left","NA","980","33676","7670","980","NA","2","legacy","4","1024","2","48000","-16","experiment","1","odd","1","516770","517837","3796","119526","517838","442289","3804","111855","520047","522049","523031","518842","37481","522049","NA","Sternberg Task","72","66830","78","yes","1024"
"92.4050632911","92.4050632911","854.569620253","854.569620253","black","experiment","legacy","legacy","legacy","0","uniform","1","undefined","1","right","78","78","0","0","78","78","0","0","78","78","78","78","0","78","0","10/18/20 17:08:29","The main experiment item","yes","SternbergTask.osexp","C:/Users/18177/OneDrive/Documents/School/Grad School/Fall 2020/Lab 3 Sternberg Memory","no","mono","no","18","no","white","no","yes","768","legacy","66","11","C:/Users/18177/OneDrive/Documents/School/Grad School/Fall 2020/Lab 3 Sternberg Memory/subject-1.csv","legacy","2 8 6 3 1","Lentiform Loewenfeld","3.3.3","0","n","0","right","right","right","right","NA","681","33676","7670","681","NA","2","legacy","5","1024","2","48000","-16","experiment","1","odd","7","523043","524098","3796","119526","524100","442289","3804","111855","526305","528307","528988","525101","37481","528307","NA","Sternberg Task","73","67511","79","yes","1024"
"92.5","92.5","852.8625","852.8625","black","experiment","legacy","legacy","legacy","0","uniform","1","undefined","1","left","79","79","0","0","79","79","0","0","79","79","79","79","0","79","0","10/18/20 17:08:29","The main experiment item","yes","SternbergTask.osexp","C:/Users/18177/OneDrive/Documents/School/Grad School/Fall 2020/Lab 3 Sternberg Memory","no","mono","no","18","no","white","no","yes","768","legacy","67","11","C:/Users/18177/OneDrive/Documents/School/Grad School/Fall 2020/Lab 3 Sternberg Memory/subject-1.csv","legacy","4","Lentiform Loewenfeld","3.3.3","1","y","0","left","right","right","left","NA","718","33676","7670","718","NA","2","legacy","1","1024","2","48000","-16","experiment","1","odd","4","529002","530056","3796","119526","530057","442289","3804","111855","532264","534265","534984","531059","37481","534265","NA","Sternberg Task","74","68229","80","yes","1024"
"92.5925925926","92.5925925926","851.148148148","851.148148148","black","experiment","legacy","legacy","legacy","0","uniform","1","undefined","1","left","80","80","0","0","80","80","0","0","80","80","80","80","0","80","0","10/18/20 17:08:29","The main experiment item","yes","SternbergTask.osexp","C:/Users/18177/OneDrive/Documents/School/Grad School/Fall 2020/Lab 3 Sternberg Memory","no","mono","no","18","no","white","no","yes","768","legacy","68","11","C:/Users/18177/OneDrive/Documents/School/Grad School/Fall 2020/Lab 3 Sternberg Memory/subject-1.csv","legacy","8 7 3","Lentiform Loewenfeld","3.3.3","1","y","0","left","right","right","left","NA","714","33676","7670","714","NA","2","legacy","3","1024","2","48000","-16","experiment","1","odd","8","534998","536052","3796","119526","536054","442289","3804","111855","538261","540262","540977","537056","37481","540262","NA","Sternberg Task","75","68943","81","yes","1024"
"91.4634146341","91.4634146341","852.341463415","852.341463415","black","experiment","legacy","legacy","legacy","0","uniform","0","undefined","0","left","81","81","0","0","81","81","0","0","81","81","81","81","0","81","0","10/18/20 17:08:29","The main experiment item","yes","SternbergTask.osexp","C:/Users/18177/OneDrive/Documents/School/Grad School/Fall 2020/Lab 3 Sternberg Memory","no","mono","no","18","no","white","no","yes","768","legacy","69","11","C:/Users/18177/OneDrive/Documents/School/Grad School/Fall 2020/Lab 3 Sternberg Memory/subject-1.csv","legacy","6 9 7 4 5 1","Lentiform Loewenfeld","3.3.3","2","y","0","right","right","right","right","NA","949","33676","7670","949","NA","2","legacy","6","1024","2","48000","-16","experiment","1","odd","9","540989","542043","3796","119526","542044","442289","3804","111855","544252","546255","547205","543047","37481","546255","NA","Sternberg Task","75","69892","82","yes","1024"
"91.5662650602","91.5662650602","854.289156627","854.289156627","black","experiment","legacy","legacy","legacy","0","uniform","1","undefined","1","left","82","82","0","0","82","82","0","0","82","82","82","82","0","82","0","10/18/20 17:08:29","The main experiment item","yes","SternbergTask.osexp","C:/Users/18177/OneDrive/Documents/School/Grad School/Fall 2020/Lab 3 Sternberg Memory","no","mono","no","18","no","white","no","yes","768","legacy","70","11","C:/Users/18177/OneDrive/Documents/School/Grad School/Fall 2020/Lab 3 Sternberg Memory/subject-1.csv","legacy","9 6 2 4 1","Lentiform Loewenfeld","3.3.3","4","y","0","left","right","right","left","NA","1014","33676","7670","1014","NA","2","legacy","5","1024","2","48000","-16","experiment","1","odd","4","540989","548272","3796","119526","548274","547217","3804","111855","550479","552480","553494","549275","37481","552480","NA","Sternberg Task","76","70906","83","yes","1024"
"91.6666666667","91.6666666667","855.595238095","855.595238095","black","experiment","legacy","legacy","legacy","0","uniform","1","undefined","1","left","83","83","0","0","83","83","0","0","83","83","83","83","0","83","0","10/18/20 17:08:29","The main experiment item","yes","SternbergTask.osexp","C:/Users/18177/OneDrive/Documents/School/Grad School/Fall 2020/Lab 3 Sternberg Memory","no","mono","no","18","no","white","no","yes","768","legacy","71","11","C:/Users/18177/OneDrive/Documents/School/Grad School/Fall 2020/Lab 3 Sternberg Memory/subject-1.csv","legacy","8 3","Lentiform Loewenfeld","3.3.3","2","y","0","left","right","right","left","NA","964","33676","7670","964","NA","2","legacy","2","1024","2","48000","-16","experiment","1","odd","3","553507","554561","3796","119526","554562","547217","3804","111855","556765","558766","559731","555564","37481","558766","NA","Sternberg Task","77","71870","84","yes","1024"
"91.7647058824","91.7647058824","856.352941176","856.352941176","black","experiment","legacy","legacy","legacy","0","uniform","1","undefined","1","right","84","84","0","0","84","84","0","0","84","84","84","84","0","84","0","10/18/20 17:08:29","The main experiment item","yes","SternbergTask.osexp","C:/Users/18177/OneDrive/Documents/School/Grad School/Fall 2020/Lab 3 Sternberg Memory","no","mono","no","18","no","white","no","yes","768","legacy","72","11","C:/Users/18177/OneDrive/Documents/School/Grad School/Fall 2020/Lab 3 Sternberg Memory/subject-1.csv","legacy","1 7 5 2 9","Lentiform Loewenfeld","3.3.3","0","n","0","right","right","right","right","NA","920","33676","7670","920","NA","2","legacy","5","1024","2","48000","-16","experiment","1","odd","3","559734","560789","3796","119526","560791","547217","3804","111855","562997","564998","565920","561792","37481","564998","NA","Sternberg Task","78","72790","85","yes","1024"
"91.8604651163","91.8604651163","860.453488372","860.453488372","black","experiment","legacy","legacy","legacy","0","uniform","1","undefined","1","right","85","85","0","0","85","85","0","0","85","85","85","85","0","85","0","10/18/20 17:08:29","The main experiment item","yes","SternbergTask.osexp","C:/Users/18177/OneDrive/Documents/School/Grad School/Fall 2020/Lab 3 Sternberg Memory","no","mono","no","18","no","white","no","yes","768","legacy","73","11","C:/Users/18177/OneDrive/Documents/School/Grad School/Fall 2020/Lab 3 Sternberg Memory/subject-1.csv","legacy","9 7 4 5 8","Lentiform Loewenfeld","3.3.3","0","n","0","right","right","right","right","NA","1209","33676","7670","1209","NA","2","legacy","5","1024","2","48000","-16","experiment","1","odd","6","565933","566988","3796","119526","566990","547217","3804","111855","569195","571197","572408","567991","37481","571197","NA","Sternberg Task","79","73999","86","yes","1024"
"91.9540229885","91.9540229885","858.816091954","858.816091954","black","experiment","legacy","legacy","legacy","0","uniform","1","undefined","1","right","86","86","0","0","86","86","0","0","86","86","86","86","0","86","0","10/18/20 17:08:29","The main experiment item","yes","SternbergTask.osexp","C:/Users/18177/OneDrive/Documents/School/Grad School/Fall 2020/Lab 3 Sternberg Memory","no","mono","no","18","no","white","no","yes","768","legacy","74","11","C:/Users/18177/OneDrive/Documents/School/Grad School/Fall 2020/Lab 3 Sternberg Memory/subject-1.csv","legacy","3 4 9 6 7 8","Lentiform Loewenfeld","3.3.3","0","n","0","right","right","right","right","NA","718","33676","7670","718","NA","2","legacy","6","1024","2","48000","-16","experiment","1","odd","2","572419","573484","3796","119526","573486","547217","3804","111855","575692","577696","578415","574488","37481","577696","NA","Sternberg Task","80","74717","87","yes","1024"
"92.0454545455","92.0454545455","857.079545455","857.079545455","black","experiment","legacy","legacy","legacy","0","uniform","1","undefined","1","right","87","87","0","0","87","87","0","0","87","87","87","87","0","87","0","10/18/20 17:08:29","The main experiment item","yes","SternbergTask.osexp","C:/Users/18177/OneDrive/Documents/School/Grad School/Fall 2020/Lab 3 Sternberg Memory","no","mono","no","18","no","white","no","yes","768","legacy","75","11","C:/Users/18177/OneDrive/Documents/School/Grad School/Fall 2020/Lab 3 Sternberg Memory/subject-1.csv","legacy","7 9 1 6","Lentiform Loewenfeld","3.3.3","0","n","0","right","right","right","right","NA","706","33676","7670","706","NA","2","legacy","4","1024","2","48000","-16","experiment","1","odd","4","578427","579481","3796","119526","579482","547217","3804","111855","581685","583686","584394","580484","37481","583686","NA","Sternberg Task","81","75423","88","yes","1024"
"92.1348314607","92.1348314607","856.235955056","856.235955056","black","experiment","legacy","legacy","legacy","0","uniform","1","undefined","1","right","88","88","0","0","88","88","0","0","88","88","88","88","0","88","0","10/18/20 17:08:29","The main experiment item","yes","SternbergTask.osexp","C:/Users/18177/OneDrive/Documents/School/Grad School/Fall 2020/Lab 3 Sternberg Memory","no","mono","no","18","no","white","no","yes","768","legacy","76","11","C:/Users/18177/OneDrive/Documents/School/Grad School/Fall 2020/Lab 3 Sternberg Memory/subject-1.csv","legacy","5 3 8 7 2 4","Lentiform Loewenfeld","3.3.3","0","n","0","right","right","right","right","NA","782","33676","7670","782","NA","2","legacy","6","1024","2","48000","-16","experiment","1","odd","9","584406","585462","3796","119526","585463","547217","3804","111855","587668","589671","590454","586465","37481","589671","NA","Sternberg Task","82","76205","89","yes","1024"
"92.2222222222","92.2222222222","859.155555556","859.155555556","black","experiment","legacy","legacy","legacy","0","uniform","1","undefined","1","left","89","89","0","0","89","89","0","0","89","89","89","89","0","89","0","10/18/20 17:08:29","The main experiment item","yes","SternbergTask.osexp","C:/Users/18177/OneDrive/Documents/School/Grad School/Fall 2020/Lab 3 Sternberg Memory","no","mono","no","18","no","white","no","yes","768","legacy","77","11","C:/Users/18177/OneDrive/Documents/School/Grad School/Fall 2020/Lab 3 Sternberg Memory/subject-1.csv","legacy","2 4 6 9","Lentiform Loewenfeld","3.3.3","3","y","0","left","right","right","left","NA","1119","33676","7670","1119","NA","2","legacy","4","1024","2","48000","-16","experiment","1","odd","6","590459","591513","3796","119526","591515","547217","3804","111855","593721","595722","596842","592517","37481","595722","NA","Sternberg Task","83","77324","90","yes","1024"
"92.3076923077","92.3076923077","865.835164835","865.835164835","black","experiment","legacy","legacy","legacy","0","uniform","1","undefined","1","right","90","90","0","0","90","90","0","0","90","90","90","90","0","90","0","10/18/20 17:08:29","The main experiment item","yes","SternbergTask.osexp","C:/Users/18177/OneDrive/Documents/School/Grad School/Fall 2020/Lab 3 Sternberg Memory","no","mono","no","18","no","white","no","yes","768","legacy","78","11","C:/Users/18177/OneDrive/Documents/School/Grad School/Fall 2020/Lab 3 Sternberg Memory/subject-1.csv","legacy","6 3 1 7 9 8","Lentiform Loewenfeld","3.3.3","0","n","0","right","right","right","right","NA","1467","33676","7670","1467","NA","2","legacy","6","1024","2","48000","-16","experiment","1","odd","4","596854","597908","3796","119526","597910","547217","3804","111855","600112","602113","603581","598911","37481","602113","NA","Sternberg Task","84","78791","91","yes","1024"
"92.3913043478","92.3913043478","869.304347826","869.304347826","black","experiment","legacy","legacy","legacy","0","uniform","1","undefined","1","left","91","91","0","0","91","91","0","0","91","91","91","91","0","91","0","10/18/20 17:08:29","The main experiment item","yes","SternbergTask.osexp","C:/Users/18177/OneDrive/Documents/School/Grad School/Fall 2020/Lab 3 Sternberg Memory","no","mono","no","18","no","white","no","yes","768","legacy","79","11","C:/Users/18177/OneDrive/Documents/School/Grad School/Fall 2020/Lab 3 Sternberg Memory/subject-1.csv","legacy","7 4 2 6 3 5","Lentiform Loewenfeld","3.3.3","6","y","0","left","right","right","left","NA","1185","33676","7670","1185","NA","2","legacy","6","1024","2","48000","-16","experiment","1","odd","5","603592","604646","3796","119526","604647","547217","3804","111855","606850","608851","610038","605649","37481","608851","NA","Sternberg Task","85","79976","92","yes","1024"
"92.4731182796","92.4731182796","871.688172043","871.688172043","black","experiment","legacy","legacy","legacy","0","uniform","1","undefined","1","left","92","92","0","0","92","92","0","0","92","92","92","92","0","92","0","10/18/20 17:08:29","The main experiment item","yes","SternbergTask.osexp","C:/Users/18177/OneDrive/Documents/School/Grad School/Fall 2020/Lab 3 Sternberg Memory","no","mono","no","18","no","white","no","yes","768","legacy","80","11","C:/Users/18177/OneDrive/Documents/School/Grad School/Fall 2020/Lab 3 Sternberg Memory/subject-1.csv","legacy","9 3 1 2 5","Lentiform Loewenfeld","3.3.3","4","y","0","left","right","right","left","NA","1091","33676","7670","1091","NA","2","legacy","5","1024","2","48000","-16","experiment","1","odd","2","610054","611108","3796","119526","611109","547217","3804","111855","613315","615316","616409","612111","37481","615316","NA","Sternberg Task","86","81067","93","yes","1024"
"92.5531914894","92.5531914894","881.776595745","881.776595745","black","experiment","legacy","legacy","legacy","0","uniform","1","undefined","1","right","93","93","0","0","93","93","0","0","93","93","93","93","0","93","0","10/18/20 17:08:29","The main experiment item","yes","SternbergTask.osexp","C:/Users/18177/OneDrive/Documents/School/Grad School/Fall 2020/Lab 3 Sternberg Memory","no","mono","no","18","no","white","no","yes","768","legacy","81","11","C:/Users/18177/OneDrive/Documents/School/Grad School/Fall 2020/Lab 3 Sternberg Memory/subject-1.csv","legacy","1 7 8 3 9","Lentiform Loewenfeld","3.3.3","0","n","0","right","right","right","right","NA","1820","33676","7670","1820","NA","2","legacy","5","1024","2","48000","-16","experiment","1","odd","2","616421","617476","3796","119526","617477","547217","3804","111855","619683","621684","623505","618479","37481","621684","NA","Sternberg Task","87","82887","94","yes","1024"
"92.6315789474","92.6315789474","880.494736842","880.494736842","black","experiment","legacy","legacy","legacy","0","uniform","1","undefined","1","right","94","94","0","0","94","94","0","0","94","94","94","94","0","94","0","10/18/20 17:08:29","The main experiment item","yes","SternbergTask.osexp","C:/Users/18177/OneDrive/Documents/School/Grad School/Fall 2020/Lab 3 Sternberg Memory","no","mono","no","18","no","white","no","yes","768","legacy","82","11","C:/Users/18177/OneDrive/Documents/School/Grad School/Fall 2020/Lab 3 Sternberg Memory/subject-1.csv","legacy","5 3 2 6 9 8","Lentiform Loewenfeld","3.3.3","0","n","0","right","right","right","right","NA","760","33676","7670","760","NA","2","legacy","6","1024","2","48000","-16","experiment","1","odd","4","623517","624583","3796","119526","624585","547217","3804","111855","626790","628791","629553","625586","37481","628791","NA","Sternberg Task","88","83647","95","yes","1024"
"92.7083333333","92.7083333333","878.666666667","878.666666667","black","experiment","legacy","legacy","legacy","0","uniform","1","undefined","1","right","95","95","0","0","95","95","0","0","95","95","95","95","0","95","0","10/18/20 17:08:29","The main experiment item","yes","SternbergTask.osexp","C:/Users/18177/OneDrive/Documents/School/Grad School/Fall 2020/Lab 3 Sternberg Memory","no","mono","no","18","no","white","no","yes","768","legacy","83","11","C:/Users/18177/OneDrive/Documents/School/Grad School/Fall 2020/Lab 3 Sternberg Memory/subject-1.csv","legacy","5","Lentiform Loewenfeld","3.3.3","0","n","0","right","right","right","right","NA","705","33676","7670","705","NA","2","legacy","1","1024","2","48000","-16","experiment","1","odd","8","629565","630619","3796","119526","630621","547217","3804","111855","632827","634828","635534","631622","37481","634828","NA","Sternberg Task","89","84352","96","yes","1024"
"92.7835051546","92.7835051546","879.536082474","879.536082474","black","experiment","legacy","legacy","legacy","0","uniform","1","undefined","1","left","96","96","0","0","96","96","0","0","96","96","96","96","0","96","0","10/18/20 17:08:29","The main experiment item","yes","SternbergTask.osexp","C:/Users/18177/OneDrive/Documents/School/Grad School/Fall 2020/Lab 3 Sternberg Memory","no","mono","no","18","no","white","no","yes","768","legacy","84","11","C:/Users/18177/OneDrive/Documents/School/Grad School/Fall 2020/Lab 3 Sternberg Memory/subject-1.csv","legacy","7 1 8 5 6 2","Lentiform Loewenfeld","3.3.3","2","y","0","left","right","right","left","NA","963","33676","7670","963","NA","2","legacy","6","1024","2","48000","-16","experiment","1","odd","1","635545","636601","3796","119526","636603","547217","3804","111855","638808","640809","641773","637605","37481","640809","NA","Sternberg Task","90","85315","97","yes","1024"
"92.8571428571","92.8571428571","879.663265306","879.663265306","black","experiment","legacy","legacy","legacy","0","uniform","1","undefined","1","right","97","97","0","0","97","97","0","0","97","97","97","97","0","97","0","10/18/20 17:08:29","The main experiment item","yes","SternbergTask.osexp","C:/Users/18177/OneDrive/Documents/School/Grad School/Fall 2020/Lab 3 Sternberg Memory","no","mono","no","18","no","white","no","yes","768","legacy","85","11","C:/Users/18177/OneDrive/Documents/School/Grad School/Fall 2020/Lab 3 Sternberg Memory/subject-1.csv","legacy","7 8 6 1","Lentiform Loewenfeld","3.3.3","0","n","0","right","right","right","right","NA","892","33676","7670","892","NA","2","legacy","4","1024","2","48000","-16","experiment","1","odd","3","641785","642840","3796","119526","642841","547217","3804","111855","645048","647051","647944","643844","37481","647051","NA","Sternberg Task","91","86207","98","yes","1024"
"92.9292929293","92.9292929293","885.202020202","885.202020202","black","experiment","legacy","legacy","legacy","0","uniform","1","undefined","1","left","98","98","0","0","98","98","0","0","98","98","98","98","0","98","0","10/18/20 17:08:29","The main experiment item","yes","SternbergTask.osexp","C:/Users/18177/OneDrive/Documents/School/Grad School/Fall 2020/Lab 3 Sternberg Memory","no","mono","no","18","no","white","no","yes","768","legacy","86","11","C:/Users/18177/OneDrive/Documents/School/Grad School/Fall 2020/Lab 3 Sternberg Memory/subject-1.csv","legacy","6 7 8 5","Lentiform Loewenfeld","3.3.3","3","y","0","left","right","right","left","NA","1428","33676","7670","1428","NA","2","legacy","4","1024","2","48000","-16","experiment","1","odd","8","647956","649010","3796","119526","649011","547217","3804","111855","651218","653221","654649","650013","37481","653221","NA","Sternberg Task","92","87635","99","yes","1024"
"92","92","888.3","888.3","black","experiment","legacy","legacy","legacy","0","uniform","0","undefined","0","left","99","99","0","0","99","99","0","0","99","99","99","99","0","99","0","10/18/20 17:08:29","The main experiment item","yes","SternbergTask.osexp","C:/Users/18177/OneDrive/Documents/School/Grad School/Fall 2020/Lab 3 Sternberg Memory","no","mono","no","18","no","white","no","yes","768","legacy","87","11","C:/Users/18177/OneDrive/Documents/School/Grad School/Fall 2020/Lab 3 Sternberg Memory/subject-1.csv","legacy","8 5 4 7 3 1","Lentiform Loewenfeld","3.3.3","2","y","0","right","right","right","right","NA","1195","33676","7670","1195","NA","2","legacy","6","1024","2","48000","-16","experiment","1","odd","5","654662","655717","3796","119526","655718","547217","3804","111855","657920","659921","661117","656719","37481","659921","NA","Sternberg Task","92","88830","100","yes","1024"
"92.0792079208","92.0792079208","886.366336634","886.366336634","black","experiment","legacy","legacy","legacy","0","uniform","1","undefined","1","left","100","100","0","0","100","100","0","0","100","100","100","100","0","100","0","10/18/20 17:08:29","The main experiment item","yes","SternbergTask.osexp","C:/Users/18177/OneDrive/Documents/School/Grad School/Fall 2020/Lab 3 Sternberg Memory","no","mono","no","18","no","white","no","yes","768","legacy","88","11","C:/Users/18177/OneDrive/Documents/School/Grad School/Fall 2020/Lab 3 Sternberg Memory/subject-1.csv","legacy","6 2","Lentiform Loewenfeld","3.3.3","1","y","0","left","right","right","left","NA","693","33676","7670","693","NA","2","legacy","2","1024","2","48000","-16","experiment","1","odd","6","654662","662182","3796","119526","662184","661128","3804","111855","664389","666390","667084","663185","37481","666390","NA","Sternberg Task","93","89523","101","yes","1024"
"92.1568627451","92.1568627451","883.107843137","883.107843137","black","experiment","legacy","legacy","legacy","0","uniform","1","undefined","1","left","101","101","0","0","101","101","0","0","101","101","101","101","0","101","0","10/18/20 17:08:29","The main experiment item","yes","SternbergTask.osexp","C:/Users/18177/OneDrive/Documents/School/Grad School/Fall 2020/Lab 3 Sternberg Memory","no","mono","no","18","no","white","no","yes","768","legacy","89","11","C:/Users/18177/OneDrive/Documents/School/Grad School/Fall 2020/Lab 3 Sternberg Memory/subject-1.csv","legacy","9 4 2","Lentiform Loewenfeld","3.3.3","1","y","0","left","right","right","left","NA","554","33676","7670","554","NA","2","legacy","3","1024","2","48000","-16","experiment","1","odd","9","667097","668165","3796","119526","668166","661128","3804","111855","670370","672371","672927","669167","37481","672371","NA","Sternberg Task","94","90077","102","yes","1024"
"92.2330097087","92.2330097087","884.582524272","884.582524272","black","experiment","legacy","legacy","legacy","0","uniform","1","undefined","1","left","102","102","0","0","102","102","0","0","102","102","102","102","0","102","0","10/18/20 17:08:29","The main experiment item","yes","SternbergTask.osexp","C:/Users/18177/OneDrive/Documents/School/Grad School/Fall 2020/Lab 3 Sternberg Memory","no","mono","no","18","no","white","no","yes","768","legacy","90","11","C:/Users/18177/OneDrive/Documents/School/Grad School/Fall 2020/Lab 3 Sternberg Memory/subject-1.csv","legacy","3 9 7 6 4","Lentiform Loewenfeld","3.3.3","3","y","0","left","right","right","left","NA","1035","33676","7670","1035","NA","2","legacy","5","1024","2","48000","-16","experiment","1","odd","7","672940","673998","3796","119526","674000","661128","3804","111855","676202","678203","679239","675001","37481","678203","NA","Sternberg Task","95","91112","103","yes","1024"
"92.3076923077","92.3076923077","886.509615385","886.509615385","black","experiment","legacy","legacy","legacy","0","uniform","1","undefined","1","right","103","103","0","0","103","103","0","0","103","103","103","103","0","103","0","10/18/20 17:08:29","The main experiment item","yes","SternbergTask.osexp","C:/Users/18177/OneDrive/Documents/School/Grad School/Fall 2020/Lab 3 Sternberg Memory","no","mono","no","18","no","white","no","yes","768","legacy","91","11","C:/Users/18177/OneDrive/Documents/School/Grad School/Fall 2020/Lab 3 Sternberg Memory/subject-1.csv","legacy","9 5 3 2 8 6","Lentiform Loewenfeld","3.3.3","0","n","0","right","right","right","right","NA","1085","33676","7670","1085","NA","2","legacy","6","1024","2","48000","-16","experiment","1","odd","7","679253","680307","3796","119526","680309","661128","3804","111855","682515","684516","685602","681310","37481","684516","NA","Sternberg Task","96","92197","104","yes","1024"
"92.380952381","92.380952381","883.723809524","883.723809524","black","experiment","legacy","legacy","legacy","0","uniform","1","undefined","1","left","104","104","0","0","104","104","0","0","104","104","104","104","0","104","0","10/18/20 17:08:29","The main experiment item","yes","SternbergTask.osexp","C:/Users/18177/OneDrive/Documents/School/Grad School/Fall 2020/Lab 3 Sternberg Memory","no","mono","no","18","no","white","no","yes","768","legacy","92","11","C:/Users/18177/OneDrive/Documents/School/Grad School/Fall 2020/Lab 3 Sternberg Memory/subject-1.csv","legacy","3 5 4 7","Lentiform Loewenfeld","3.3.3","1","y","0","left","right","right","left","NA","594","33676","7670","594","NA","2","legacy","4","1024","2","48000","-16","experiment","1","odd","3","685605","686660","3796","119526","686661","661128","3804","111855","688867","690868","691464","687662","37481","690868","NA","Sternberg Task","97","92791","105","yes","1024"
"92.4528301887","92.4528301887","886.160377358","886.160377358","black","experiment","legacy","legacy","legacy","0","uniform","1","undefined","1","left","105","105","0","0","105","105","0","0","105","105","105","105","0","105","0","10/18/20 17:08:29","The main experiment item","yes","SternbergTask.osexp","C:/Users/18177/OneDrive/Documents/School/Grad School/Fall 2020/Lab 3 Sternberg Memory","no","mono","no","18","no","white","no","yes","768","legacy","93","11","C:/Users/18177/OneDrive/Documents/School/Grad School/Fall 2020/Lab 3 Sternberg Memory/subject-1.csv","legacy","6 5","Lentiform Loewenfeld","3.3.3","2","y","0","left","right","right","left","NA","1142","33676","7670","1142","NA","2","legacy","2","1024","2","48000","-16","experiment","1","odd","5","691477","692531","3796","119526","692532","661128","3804","111855","694737","696738","697880","693534","37481","696738","NA","Sternberg Task","98","93933","106","yes","1024"
