"acc","accuracy","average_response_time","avg_rt","background","block","canvas_backend","clock_backend","color_backend","compensation","coordinates","correct","correct_instruction1","correct_keyboard_response","correct_response","count_ISI","count_correctFeedback","count_expSequence","count_experiment","count_experimentLoop","count_fixation","count_incorrectFeedback","count_instruction1","count_instructions2","count_keyboard_response","count_logger","count_memorySet","count_practiceLoop","count_probe","count_thankYou","datetime","description","disable_garbage_collection","experiment_file","experiment_path","font_bold","font_family","font_italic","font_size","font_underline","foreground","form_clicks","fullscreen","height","keyboard_backend","live_row","live_row_practiceLoop","logfile","mouse_backend","numberSet","opensesame_codename","opensesame_version","posInSet","present","repeat_cycle","response","response_instruction1","response_instructions2","response_keyboard_response","response_thankYou","response_time","response_time_instruction1","response_time_instructions2","response_time_keyboard_response","response_time_thankYou","round_decimals","sampler_backend","setSize","sound_buf_size","sound_channels","sound_freq","sound_sample_size","start","subject_nr","subject_parity","target","time_ISI","time_correctFeedback","time_expSequence","time_experiment","time_experimentLoop","time_fixation","time_incorrectFeedback","time_instruction1","time_instructions2","time_keyboard_response","time_logger","time_memorySet","time_practiceLoop","time_probe","time_thankYou","title","total_correct","total_response_time","total_responses","uniform_coordinates","width"
"100","100","1158","1158","black","practice","legacy","legacy","legacy","0","uniform","1","undefined","1","left","0","0","0","0","0","0","0","0","0","0","0","0","0","0","0","10/25/20 16:16:52","The main experiment item","yes","SternbergTask.osexp","C:\Users\Jennifer Wright\Desktop\PSYC5613\STERNBERGTASK","no","mono","no","18","no","white","no","yes","768","legacy","0","0","C:/Users/Jennifer Wright/Desktop/PSYC5613/STERNBERGTASK/th-subject-4.csv","legacy","1 7 9 8 5","Lentiform Loewenfeld","3.3.3","4","y","0","left","left","NA","left","NA","1158","8622","NA","1158","NA","2","legacy","5","1024","2","48000","-16","experiment","4","even","8","17528","NA","15309","4313","NA","15316","NA","4321","NA","19534","20693","16322","12946","19534","NA","SternbergTask","1","1158","1","yes","1024"
"100","100","1036","1036","black","practice","legacy","legacy","legacy","0","uniform","1","undefined","1","left","1","1","1","0","0","1","1","0","0","1","1","1","0","1","0","10/25/20 16:16:52","The main experiment item","yes","SternbergTask.osexp","C:\Users\Jennifer Wright\Desktop\PSYC5613\STERNBERGTASK","no","mono","no","18","no","white","no","yes","768","legacy","1","1","C:/Users/Jennifer Wright/Desktop/PSYC5613/STERNBERGTASK/th-subject-4.csv","legacy","6","Lentiform Loewenfeld","3.3.3","1","y","0","left","left","NA","left","NA","914","8622","NA","914","NA","2","legacy","1","1024","2","48000","-16","experiment","4","even","6","24387","20942","22167","4313","NA","22173","NA","4321","NA","26394","27310","23179","12946","26393","NA","SternbergTask","2","2072","2","yes","1024"
"100","100","878.333333333","878.333333333","black","practice","legacy","legacy","legacy","0","uniform","1","undefined","1","right","2","2","2","0","0","2","2","0","0","2","2","2","0","2","0","10/25/20 16:16:52","The main experiment item","yes","SternbergTask.osexp","C:\Users\Jennifer Wright\Desktop\PSYC5613\STERNBERGTASK","no","mono","no","18","no","white","no","yes","768","legacy","2","2","C:/Users/Jennifer Wright/Desktop/PSYC5613/STERNBERGTASK/th-subject-4.csv","legacy","3 1 9 4","Lentiform Loewenfeld","3.3.3","0","n","0","right","left","NA","right","NA","563","8622","NA","563","NA","2","legacy","4","1024","2","48000","-16","experiment","4","even","6","30823","27380","28605","4313","NA","28610","NA","4321","NA","32829","33394","29617","12946","32829","NA","SternbergTask","3","2635","3","yes","1024"
"100","100","900","900","black","practice","legacy","legacy","legacy","0","uniform","1","undefined","1","right","3","3","3","0","0","3","3","0","0","3","3","3","0","3","0","10/25/20 16:16:52","The main experiment item","yes","SternbergTask.osexp","C:\Users\Jennifer Wright\Desktop\PSYC5613\STERNBERGTASK","no","mono","no","18","no","white","no","yes","768","legacy","3","3","C:/Users/Jennifer Wright/Desktop/PSYC5613/STERNBERGTASK/th-subject-4.csv","legacy","5 7 8 4 1 2","Lentiform Loewenfeld","3.3.3","0","n","0","right","left","NA","right","NA","965","8622","NA","965","NA","2","legacy","6","1024","2","48000","-16","experiment","4","even","6","36907","33461","34685","4313","NA","34690","NA","4321","NA","38915","39881","35701","12946","38914","NA","SternbergTask","4","3600","4","yes","1024"
"100","100","842","842","black","practice","legacy","legacy","legacy","0","uniform","1","undefined","1","left","4","4","4","0","0","4","4","0","0","4","4","4","0","4","0","10/25/20 16:16:52","The main experiment item","yes","SternbergTask.osexp","C:\Users\Jennifer Wright\Desktop\PSYC5613\STERNBERGTASK","no","mono","no","18","no","white","no","yes","768","legacy","4","4","C:/Users/Jennifer Wright/Desktop/PSYC5613/STERNBERGTASK/th-subject-4.csv","legacy","4 8","Lentiform Loewenfeld","3.3.3","1","y","0","left","left","NA","left","NA","610","8622","NA","610","NA","2","legacy","2","1024","2","48000","-16","experiment","4","even","4","43348","39913","41131","4313","NA","41136","NA","4321","NA","45355","45966","42142","12946","45354","NA","SternbergTask","5","4210","5","yes","1024"
"100","100","857","857","black","practice","legacy","legacy","legacy","0","uniform","1","undefined","1","right","5","5","5","0","0","5","5","0","0","5","5","5","0","5","0","10/25/20 16:16:52","The main experiment item","yes","SternbergTask.osexp","C:\Users\Jennifer Wright\Desktop\PSYC5613\STERNBERGTASK","no","mono","no","18","no","white","no","yes","768","legacy","5","5","C:/Users/Jennifer Wright/Desktop/PSYC5613/STERNBERGTASK/th-subject-4.csv","legacy","2 1","Lentiform Loewenfeld","3.3.3","0","n","0","right","left","NA","right","NA","932","8622","NA","932","NA","2","legacy","2","1024","2","48000","-16","experiment","4","even","5","49479","46026","47259","4313","NA","47264","NA","4321","NA","51492","52426","48270","12946","51491","NA","SternbergTask","6","5142","6","yes","1024"
"100","100","842","842","black","practice","legacy","legacy","legacy","0","uniform","1","undefined","1","right","6","6","6","0","0","6","6","0","0","6","6","6","0","6","0","10/25/20 16:16:52","The main experiment item","yes","SternbergTask.osexp","C:\Users\Jennifer Wright\Desktop\PSYC5613\STERNBERGTASK","no","mono","no","18","no","white","no","yes","768","legacy","6","6","C:/Users/Jennifer Wright/Desktop/PSYC5613/STERNBERGTASK/th-subject-4.csv","legacy","9 6 7 4 5","Lentiform Loewenfeld","3.3.3","0","n","0","right","left","NA","right","NA","752","8622","NA","752","NA","2","legacy","5","1024","2","48000","-16","experiment","4","even","3","55927","52489","53709","4313","NA","53714","NA","4321","NA","57934","58687","54720","12946","57933","NA","SternbergTask","7","5894","7","yes","1024"
"100","100","825.25","825.25","black","practice","legacy","legacy","legacy","0","uniform","1","undefined","1","right","7","7","7","0","0","7","7","0","0","7","7","7","0","7","0","10/25/20 16:16:52","The main experiment item","yes","SternbergTask.osexp","C:\Users\Jennifer Wright\Desktop\PSYC5613\STERNBERGTASK","no","mono","no","18","no","white","no","yes","768","legacy","7","7","C:/Users/Jennifer Wright/Desktop/PSYC5613/STERNBERGTASK/th-subject-4.csv","legacy","4 1 5","Lentiform Loewenfeld","3.3.3","0","n","0","right","left","NA","right","NA","708","8622","NA","708","NA","2","legacy","3","1024","2","48000","-16","experiment","4","even","2","62202","58755","59976","4313","NA","59982","NA","4321","NA","64209","64919","60988","12946","64209","NA","SternbergTask","8","6602","8","yes","1024"
"100","100","845.444444444","845.444444444","black","practice","legacy","legacy","legacy","0","uniform","1","undefined","1","left","8","8","8","0","0","8","8","0","0","8","8","8","0","8","0","10/25/20 16:16:52","The main experiment item","yes","SternbergTask.osexp","C:\Users\Jennifer Wright\Desktop\PSYC5613\STERNBERGTASK","no","mono","no","18","no","white","no","yes","768","legacy","8","8","C:/Users/Jennifer Wright/Desktop/PSYC5613/STERNBERGTASK/th-subject-4.csv","legacy","4 3 1 7 9 8","Lentiform Loewenfeld","3.3.3","1","y","0","left","left","NA","left","NA","1007","8622","NA","1007","NA","2","legacy","6","1024","2","48000","-16","experiment","4","even","4","68424","64989","66209","4313","NA","66214","NA","4321","NA","70431","71440","67219","12946","70430","NA","SternbergTask","9","7609","9","yes","1024"
"100","100","840.9","840.9","black","practice","legacy","legacy","legacy","0","uniform","1","undefined","1","left","9","9","9","0","0","9","9","0","0","9","9","9","0","9","0","10/25/20 16:16:52","The main experiment item","yes","SternbergTask.osexp","C:\Users\Jennifer Wright\Desktop\PSYC5613\STERNBERGTASK","no","mono","no","18","no","white","no","yes","768","legacy","9","9","C:/Users/Jennifer Wright/Desktop/PSYC5613/STERNBERGTASK/th-subject-4.csv","legacy","2 9 4","Lentiform Loewenfeld","3.3.3","3","y","0","left","left","NA","left","NA","800","8622","NA","800","NA","2","legacy","3","1024","2","48000","-16","experiment","4","even","4","74994","71513","72777","4313","NA","72782","NA","4321","NA","76999","77801","73789","12946","76998","NA","SternbergTask","10","8409","10","yes","1024"
"100","100","865.818181818","865.818181818","black","practice","legacy","legacy","legacy","0","uniform","1","undefined","1","left","10","10","10","0","0","10","10","0","0","10","10","10","0","10","0","10/25/20 16:16:52","The main experiment item","yes","SternbergTask.osexp","C:\Users\Jennifer Wright\Desktop\PSYC5613\STERNBERGTASK","no","mono","no","18","no","white","no","yes","768","legacy","10","10","C:/Users/Jennifer Wright/Desktop/PSYC5613/STERNBERGTASK/th-subject-4.csv","legacy","1 5 2 9","Lentiform Loewenfeld","3.3.3","2","y","0","left","left","NA","left","NA","1115","8622","NA","1115","NA","2","legacy","4","1024","2","48000","-16","experiment","4","even","5","81332","77862","79118","4313","NA","79123","NA","4321","NA","83337","84453","80128","12946","83336","NA","SternbergTask","11","9524","11","yes","1024"
"100","100","828","828","black","practice","legacy","legacy","legacy","0","uniform","1","undefined","1","right","11","11","11","0","0","11","11","0","0","11","11","11","0","11","0","10/25/20 16:16:52","The main experiment item","yes","SternbergTask.osexp","C:\Users\Jennifer Wright\Desktop\PSYC5613\STERNBERGTASK","no","mono","no","18","no","white","no","yes","768","legacy","11","11","C:/Users/Jennifer Wright/Desktop/PSYC5613/STERNBERGTASK/th-subject-4.csv","legacy","5","Lentiform Loewenfeld","3.3.3","0","n","0","right","left","NA","right","NA","412","8622","NA","412","NA","2","legacy","1","1024","2","48000","-16","experiment","4","even","3","87983","84526","85757","4313","NA","85762","NA","4321","NA","89990","90404","86773","12946","89989","NA","SternbergTask","12","9936","12","yes","1024"
"100","100","818.692307692","818.692307692","black","experiment","legacy","legacy","legacy","0","uniform","1","undefined","1","left","12","12","12","0","0","12","12","0","0","12","12","12","0","12","0","10/25/20 16:16:52","The main experiment item","yes","SternbergTask.osexp","C:\Users\Jennifer Wright\Desktop\PSYC5613\STERNBERGTASK","no","mono","no","18","no","white","no","yes","768","legacy","0","11","C:/Users/Jennifer Wright/Desktop/PSYC5613/STERNBERGTASK/th-subject-4.csv","legacy","8 1 6","Lentiform Loewenfeld","3.3.3","3","y","0","left","left","left","left","NA","707","8622","6619","707","NA","2","legacy","3","1024","2","48000","-16","experiment","4","even","6","100682","90470","98463","4313","98154","98469","NA","4321","91533","102688","103396","99476","12946","102687","NA","SternbergTask","13","10643","13","yes","1024"
"100","100","819.071428571","819.071428571","black","experiment","legacy","legacy","legacy","0","uniform","1","undefined","1","left","13","13","13","0","0","13","13","0","0","13","13","13","0","13","0","10/25/20 16:16:52","The main experiment item","yes","SternbergTask.osexp","C:\Users\Jennifer Wright\Desktop\PSYC5613\STERNBERGTASK","no","mono","no","18","no","white","no","yes","768","legacy","1","11","C:/Users/Jennifer Wright/Desktop/PSYC5613/STERNBERGTASK/th-subject-4.csv","legacy","8 9 6 1","Lentiform Loewenfeld","3.3.3","2","y","0","left","left","left","left","NA","824","8622","6619","824","NA","2","legacy","4","1024","2","48000","-16","experiment","4","even","9","106921","103467","104697","4313","98154","104702","NA","4321","91533","108929","109755","105712","12946","108928","NA","SternbergTask","14","11467","14","yes","1024"
"100","100","800.266666667","800.266666667","black","experiment","legacy","legacy","legacy","0","uniform","1","undefined","1","right","14","14","14","0","0","14","14","0","0","14","14","14","0","14","0","10/25/20 16:16:52","The main experiment item","yes","SternbergTask.osexp","C:\Users\Jennifer Wright\Desktop\PSYC5613\STERNBERGTASK","no","mono","no","18","no","white","no","yes","768","legacy","2","11","C:/Users/Jennifer Wright/Desktop/PSYC5613/STERNBERGTASK/th-subject-4.csv","legacy","1 4 9 3","Lentiform Loewenfeld","3.3.3","0","n","0","right","left","left","right","NA","537","8622","6619","537","NA","2","legacy","4","1024","2","48000","-16","experiment","4","even","5","113273","109821","111046","4313","98154","111051","NA","4321","91533","115280","115818","112060","12946","115279","NA","SternbergTask","15","12004","15","yes","1024"
"100","100","792.1875","792.1875","black","experiment","legacy","legacy","legacy","0","uniform","1","undefined","1","left","15","15","15","0","0","15","15","0","0","15","15","15","0","15","0","10/25/20 16:16:52","The main experiment item","yes","SternbergTask.osexp","C:\Users\Jennifer Wright\Desktop\PSYC5613\STERNBERGTASK","no","mono","no","18","no","white","no","yes","768","legacy","3","11","C:/Users/Jennifer Wright/Desktop/PSYC5613/STERNBERGTASK/th-subject-4.csv","legacy","5 7 3 6 2","Lentiform Loewenfeld","3.3.3","5","y","0","left","left","left","left","NA","671","8622","6619","671","NA","2","legacy","5","1024","2","48000","-16","experiment","4","even","2","119326","115889","117108","4313","98154","117113","NA","4321","91533","121332","122005","118120","12946","121332","NA","SternbergTask","16","12675","16","yes","1024"
"100","100","767.588235294","767.588235294","black","experiment","legacy","legacy","legacy","0","uniform","1","undefined","1","left","16","16","16","0","0","16","16","0","0","16","16","16","0","16","0","10/25/20 16:16:52","The main experiment item","yes","SternbergTask.osexp","C:\Users\Jennifer Wright\Desktop\PSYC5613\STERNBERGTASK","no","mono","no","18","no","white","no","yes","768","legacy","4","11","C:/Users/Jennifer Wright/Desktop/PSYC5613/STERNBERGTASK/th-subject-4.csv","legacy","2 8 5 1","Lentiform Loewenfeld","3.3.3","4","y","0","left","left","left","left","NA","374","8622","6619","374","NA","2","legacy","4","1024","2","48000","-16","experiment","4","even","1","125594","122144","123366","4313","98154","123371","NA","4321","91533","127601","127977","124380","12946","127600","NA","SternbergTask","17","13049","17","yes","1024"
"100","100","749.444444444","749.444444444","black","experiment","legacy","legacy","legacy","0","uniform","1","undefined","1","right","17","17","17","0","0","17","17","0","0","17","17","17","0","17","0","10/25/20 16:16:52","The main experiment item","yes","SternbergTask.osexp","C:\Users\Jennifer Wright\Desktop\PSYC5613\STERNBERGTASK","no","mono","no","18","no","white","no","yes","768","legacy","5","11","C:/Users/Jennifer Wright/Desktop/PSYC5613/STERNBERGTASK/th-subject-4.csv","legacy","1 7 5 2","Lentiform Loewenfeld","3.3.3","0","n","0","right","left","left","right","NA","441","8622","6619","441","NA","2","legacy","4","1024","2","48000","-16","experiment","4","even","3","131484","128045","129265","4313","98154","129270","NA","4321","91533","133490","133933","130277","12946","133489","NA","SternbergTask","18","13490","18","yes","1024"
"100","100","737","737","black","experiment","legacy","legacy","legacy","0","uniform","1","undefined","1","left","18","18","18","0","0","18","18","0","0","18","18","18","0","18","0","10/25/20 16:16:52","The main experiment item","yes","SternbergTask.osexp","C:\Users\Jennifer Wright\Desktop\PSYC5613\STERNBERGTASK","no","mono","no","18","no","white","no","yes","768","legacy","6","11","C:/Users/Jennifer Wright/Desktop/PSYC5613/STERNBERGTASK/th-subject-4.csv","legacy","9 1 6 7 8","Lentiform Loewenfeld","3.3.3","1","y","0","left","left","left","left","NA","513","8622","6619","513","NA","2","legacy","5","1024","2","48000","-16","experiment","4","even","9","137441","134000","135220","4313","98154","135225","NA","4321","91533","139447","139962","136235","12946","139447","NA","SternbergTask","19","14003","19","yes","1024"
"100","100","725.3","725.3","black","experiment","legacy","legacy","legacy","0","uniform","1","undefined","1","left","19","19","19","0","0","19","19","0","0","19","19","19","0","19","0","10/25/20 16:16:52","The main experiment item","yes","SternbergTask.osexp","C:\Users\Jennifer Wright\Desktop\PSYC5613\STERNBERGTASK","no","mono","no","18","no","white","no","yes","768","legacy","7","11","C:/Users/Jennifer Wright/Desktop/PSYC5613/STERNBERGTASK/th-subject-4.csv","legacy","7 6","Lentiform Loewenfeld","3.3.3","2","y","0","left","left","left","left","NA","503","8622","6619","503","NA","2","legacy","2","1024","2","48000","-16","experiment","4","even","6","143458","140020","141241","4313","98154","141246","NA","4321","91533","145463","145968","142252","12946","145463","NA","SternbergTask","20","14506","20","yes","1024"
"100","100","715.142857143","715.142857143","black","experiment","legacy","legacy","legacy","0","uniform","1","undefined","1","left","20","20","20","0","0","20","20","0","0","20","20","20","0","20","0","10/25/20 16:16:52","The main experiment item","yes","SternbergTask.osexp","C:\Users\Jennifer Wright\Desktop\PSYC5613\STERNBERGTASK","no","mono","no","18","no","white","no","yes","768","legacy","8","11","C:/Users/Jennifer Wright/Desktop/PSYC5613/STERNBERGTASK/th-subject-4.csv","legacy","3 2 1 4 7","Lentiform Loewenfeld","3.3.3","2","y","0","left","left","left","left","NA","512","8622","6619","512","NA","2","legacy","5","1024","2","48000","-16","experiment","4","even","2","149475","146023","147253","4313","98154","147258","NA","4321","91533","151481","151994","148267","12946","151481","NA","SternbergTask","21","15018","21","yes","1024"
"100","100","715.090909091","715.090909091","black","experiment","legacy","legacy","legacy","0","uniform","1","undefined","1","right","21","21","21","0","0","21","21","0","0","21","21","21","0","21","0","10/25/20 16:16:52","The main experiment item","yes","SternbergTask.osexp","C:\Users\Jennifer Wright\Desktop\PSYC5613\STERNBERGTASK","no","mono","no","18","no","white","no","yes","768","legacy","9","11","C:/Users/Jennifer Wright/Desktop/PSYC5613/STERNBERGTASK/th-subject-4.csv","legacy","9 8 2 7 4","Lentiform Loewenfeld","3.3.3","0","n","0","right","left","left","right","NA","714","8622","6619","714","NA","2","legacy","5","1024","2","48000","-16","experiment","4","even","5","155461","152019","153242","4313","98154","153247","NA","4321","91533","157465","158181","154255","12946","157465","NA","SternbergTask","22","15732","22","yes","1024"
"100","100","705.869565217","705.869565217","black","experiment","legacy","legacy","legacy","0","uniform","1","undefined","1","left","22","22","22","0","0","22","22","0","0","22","22","22","0","22","0","10/25/20 16:16:52","The main experiment item","yes","SternbergTask.osexp","C:\Users\Jennifer Wright\Desktop\PSYC5613\STERNBERGTASK","no","mono","no","18","no","white","no","yes","768","legacy","10","11","C:/Users/Jennifer Wright/Desktop/PSYC5613/STERNBERGTASK/th-subject-4.csv","legacy","6 7 9 3 1 2","Lentiform Loewenfeld","3.3.3","1","y","0","left","left","left","left","NA","503","8622","6619","503","NA","2","legacy","6","1024","2","48000","-16","experiment","4","even","6","161682","158232","159464","4313","98154","159469","NA","4321","91533","163690","164195","160478","12946","163690","NA","SternbergTask","23","16235","23","yes","1024"
"100","100","699.333333333","699.333333333","black","experiment","legacy","legacy","legacy","0","uniform","1","undefined","1","left","23","23","23","0","0","23","23","0","0","23","23","23","0","23","0","10/25/20 16:16:52","The main experiment item","yes","SternbergTask.osexp","C:\Users\Jennifer Wright\Desktop\PSYC5613\STERNBERGTASK","no","mono","no","18","no","white","no","yes","768","legacy","11","11","C:/Users/Jennifer Wright/Desktop/PSYC5613/STERNBERGTASK/th-subject-4.csv","legacy","2 6 1 7 4","Lentiform Loewenfeld","3.3.3","2","y","0","left","left","left","left","NA","549","8622","6619","549","NA","2","legacy","5","1024","2","48000","-16","experiment","4","even","6","167711","164254","165488","4313","98154","165493","NA","4321","91533","169719","170270","166504","12946","169718","NA","SternbergTask","24","16784","24","yes","1024"
"100","100","694","694","black","experiment","legacy","legacy","legacy","0","uniform","1","undefined","1","right","24","24","24","0","0","24","24","0","0","24","24","24","0","24","0","10/25/20 16:16:52","The main experiment item","yes","SternbergTask.osexp","C:\Users\Jennifer Wright\Desktop\PSYC5613\STERNBERGTASK","no","mono","no","18","no","white","no","yes","768","legacy","12","11","C:/Users/Jennifer Wright/Desktop/PSYC5613/STERNBERGTASK/th-subject-4.csv","legacy","2 8 9 4 1","Lentiform Loewenfeld","3.3.3","0","n","0","right","left","left","right","NA","566","8622","6619","566","NA","2","legacy","5","1024","2","48000","-16","experiment","4","even","5","173777","170333","171559","4313","98154","171565","NA","4321","91533","175783","176351","172571","12946","175783","NA","SternbergTask","25","17350","25","yes","1024"
"100","100","689.461538462","689.461538462","black","experiment","legacy","legacy","legacy","0","uniform","1","undefined","1","right","25","25","25","0","0","25","25","0","0","25","25","25","0","25","0","10/25/20 16:16:52","The main experiment item","yes","SternbergTask.osexp","C:\Users\Jennifer Wright\Desktop\PSYC5613\STERNBERGTASK","no","mono","no","18","no","white","no","yes","768","legacy","13","11","C:/Users/Jennifer Wright/Desktop/PSYC5613/STERNBERGTASK/th-subject-4.csv","legacy","1 4 9 2 5","Lentiform Loewenfeld","3.3.3","0","n","0","right","left","left","right","NA","576","8622","6619","576","NA","2","legacy","5","1024","2","48000","-16","experiment","4","even","7","179856","176412","177633","4313","98154","177638","NA","4321","91533","181862","182440","178649","12946","181862","NA","SternbergTask","26","17926","26","yes","1024"
"100","100","696.740740741","696.740740741","black","experiment","legacy","legacy","legacy","0","uniform","1","undefined","1","left","26","26","26","0","0","26","26","0","0","26","26","26","0","26","0","10/25/20 16:16:52","The main experiment item","yes","SternbergTask.osexp","C:\Users\Jennifer Wright\Desktop\PSYC5613\STERNBERGTASK","no","mono","no","18","no","white","no","yes","768","legacy","14","11","C:/Users/Jennifer Wright/Desktop/PSYC5613/STERNBERGTASK/th-subject-4.csv","legacy","4 3 2 5 8","Lentiform Loewenfeld","3.3.3","2","y","0","left","left","left","left","NA","886","8622","6619","886","NA","2","legacy","5","1024","2","48000","-16","experiment","4","even","3","185939","182500","183723","4313","98154","183729","NA","4321","91533","187947","188835","184735","12946","187946","NA","SternbergTask","27","18812","27","yes","1024"
"100","100","700.035714286","700.035714286","black","experiment","legacy","legacy","legacy","0","uniform","1","undefined","1","right","27","27","27","0","0","27","27","0","0","27","27","27","0","27","0","10/25/20 16:16:52","The main experiment item","yes","SternbergTask.osexp","C:\Users\Jennifer Wright\Desktop\PSYC5613\STERNBERGTASK","no","mono","no","18","no","white","no","yes","768","legacy","15","11","C:/Users/Jennifer Wright/Desktop/PSYC5613/STERNBERGTASK/th-subject-4.csv","legacy","6 9 5","Lentiform Loewenfeld","3.3.3","0","n","0","right","left","left","right","NA","789","8622","6619","789","NA","2","legacy","3","1024","2","48000","-16","experiment","4","even","8","192342","188898","190117","4313","98154","190123","NA","4321","91533","194350","195141","191132","12946","194349","NA","SternbergTask","28","19601","28","yes","1024"
"100","100","710.896551724","710.896551724","black","experiment","legacy","legacy","legacy","0","uniform","1","undefined","1","right","28","28","28","0","0","28","28","0","0","28","28","28","0","28","0","10/25/20 16:16:52","The main experiment item","yes","SternbergTask.osexp","C:\Users\Jennifer Wright\Desktop\PSYC5613\STERNBERGTASK","no","mono","no","18","no","white","no","yes","768","legacy","16","11","C:/Users/Jennifer Wright/Desktop/PSYC5613/STERNBERGTASK/th-subject-4.csv","legacy","7 6 4 8 1 2","Lentiform Loewenfeld","3.3.3","0","n","0","right","left","left","right","NA","1015","8622","6619","1015","NA","2","legacy","6","1024","2","48000","-16","experiment","4","even","9","198600","195161","196384","4313","98154","196389","NA","4321","91533","200607","201624","197394","12946","200606","NA","SternbergTask","29","20616","29","yes","1024"
"100","100","708.333333333","708.333333333","black","experiment","legacy","legacy","legacy","0","uniform","1","undefined","1","left","29","29","29","0","0","29","29","0","0","29","29","29","0","29","0","10/25/20 16:16:52","The main experiment item","yes","SternbergTask.osexp","C:\Users\Jennifer Wright\Desktop\PSYC5613\STERNBERGTASK","no","mono","no","18","no","white","no","yes","768","legacy","17","11","C:/Users/Jennifer Wright/Desktop/PSYC5613/STERNBERGTASK/th-subject-4.csv","legacy","9 5 3 8 4","Lentiform Loewenfeld","3.3.3","1","y","0","left","left","left","left","NA","634","8622","6619","634","NA","2","legacy","5","1024","2","48000","-16","experiment","4","even","9","205129","201684","202907","4313","98154","202912","NA","4321","91533","207136","207772","203918","12946","207136","NA","SternbergTask","30","21250","30","yes","1024"
"100","100","703.35483871","703.35483871","black","experiment","legacy","legacy","legacy","0","uniform","1","undefined","1","left","30","30","30","0","0","30","30","0","0","30","30","30","0","30","0","10/25/20 16:16:52","The main experiment item","yes","SternbergTask.osexp","C:\Users\Jennifer Wright\Desktop\PSYC5613\STERNBERGTASK","no","mono","no","18","no","white","no","yes","768","legacy","18","11","C:/Users/Jennifer Wright/Desktop/PSYC5613/STERNBERGTASK/th-subject-4.csv","legacy","7","Lentiform Loewenfeld","3.3.3","1","y","0","left","left","left","left","NA","554","8622","6619","554","NA","2","legacy","1","1024","2","48000","-16","experiment","4","even","7","211281","207825","209062","4313","98154","209068","NA","4321","91533","213287","213843","210074","12946","213287","NA","SternbergTask","31","21804","31","yes","1024"
"100","100","702.96875","702.96875","black","experiment","legacy","legacy","legacy","0","uniform","1","undefined","1","left","31","31","31","0","0","31","31","0","0","31","31","31","0","31","0","10/25/20 16:16:52","The main experiment item","yes","SternbergTask.osexp","C:\Users\Jennifer Wright\Desktop\PSYC5613\STERNBERGTASK","no","mono","no","18","no","white","no","yes","768","legacy","19","11","C:/Users/Jennifer Wright/Desktop/PSYC5613/STERNBERGTASK/th-subject-4.csv","legacy","3 9 6 2","Lentiform Loewenfeld","3.3.3","4","y","0","left","left","left","left","NA","691","8622","6619","691","NA","2","legacy","4","1024","2","48000","-16","experiment","4","even","2","217334","213895","215117","4313","98154","215122","NA","4321","91533","219348","220041","216128","12946","219348","NA","SternbergTask","32","22495","32","yes","1024"
"100","100","696.757575758","696.757575758","black","experiment","legacy","legacy","legacy","0","uniform","1","undefined","1","right","32","32","32","0","0","32","32","0","0","32","32","32","0","32","0","10/25/20 16:16:52","The main experiment item","yes","SternbergTask.osexp","C:\Users\Jennifer Wright\Desktop\PSYC5613\STERNBERGTASK","no","mono","no","18","no","white","no","yes","768","legacy","20","11","C:/Users/Jennifer Wright/Desktop/PSYC5613/STERNBERGTASK/th-subject-4.csv","legacy","8 9","Lentiform Loewenfeld","3.3.3","0","n","0","right","left","left","right","NA","498","8622","6619","498","NA","2","legacy","2","1024","2","48000","-16","experiment","4","even","5","223551","220102","221332","4313","98154","221337","NA","4321","91533","225567","226067","222343","12946","225566","NA","SternbergTask","33","22993","33","yes","1024"
"100","100","695.911764706","695.911764706","black","experiment","legacy","legacy","legacy","0","uniform","1","undefined","1","right","33","33","33","0","0","33","33","0","0","33","33","33","0","33","0","10/25/20 16:16:52","The main experiment item","yes","SternbergTask.osexp","C:\Users\Jennifer Wright\Desktop\PSYC5613\STERNBERGTASK","no","mono","no","18","no","white","no","yes","768","legacy","21","11","C:/Users/Jennifer Wright/Desktop/PSYC5613/STERNBERGTASK/th-subject-4.csv","legacy","4 8 1 2","Lentiform Loewenfeld","3.3.3","0","n","0","right","left","left","right","NA","668","8622","6619","668","NA","2","legacy","4","1024","2","48000","-16","experiment","4","even","7","229595","226160","227376","4313","98154","227382","NA","4321","91533","231601","232271","228388","12946","231601","NA","SternbergTask","34","23661","34","yes","1024"
"100","100","689.742857143","689.742857143","black","experiment","legacy","legacy","legacy","0","uniform","1","undefined","1","left","34","34","34","0","0","34","34","0","0","34","34","34","0","34","0","10/25/20 16:16:52","The main experiment item","yes","SternbergTask.osexp","C:\Users\Jennifer Wright\Desktop\PSYC5613\STERNBERGTASK","no","mono","no","18","no","white","no","yes","768","legacy","22","11","C:/Users/Jennifer Wright/Desktop/PSYC5613/STERNBERGTASK/th-subject-4.csv","legacy","3 5 7 1","Lentiform Loewenfeld","3.3.3","3","y","0","left","left","left","left","NA","480","8622","6619","480","NA","2","legacy","4","1024","2","48000","-16","experiment","4","even","7","235785","232323","233553","4313","98154","233559","NA","4321","91533","237792","238274","234569","12946","237792","NA","SternbergTask","35","24141","35","yes","1024"
"100","100","687.5","687.5","black","experiment","legacy","legacy","legacy","0","uniform","1","undefined","1","right","35","35","35","0","0","35","35","0","0","35","35","35","0","35","0","10/25/20 16:16:52","The main experiment item","yes","SternbergTask.osexp","C:\Users\Jennifer Wright\Desktop\PSYC5613\STERNBERGTASK","no","mono","no","18","no","white","no","yes","768","legacy","23","11","C:/Users/Jennifer Wright/Desktop/PSYC5613/STERNBERGTASK/th-subject-4.csv","legacy","5 9 2 3","Lentiform Loewenfeld","3.3.3","0","n","0","right","left","left","right","NA","609","8622","6619","609","NA","2","legacy","4","1024","2","48000","-16","experiment","4","even","8","241777","238334","239559","4313","98154","239564","NA","4321","91533","243789","244400","240571","12946","243789","NA","SternbergTask","36","24750","36","yes","1024"
"100","100","682.432432432","682.432432432","black","experiment","legacy","legacy","legacy","0","uniform","1","undefined","1","left","36","36","36","0","0","36","36","0","0","36","36","36","0","36","0","10/25/20 16:16:52","The main experiment item","yes","SternbergTask.osexp","C:\Users\Jennifer Wright\Desktop\PSYC5613\STERNBERGTASK","no","mono","no","18","no","white","no","yes","768","legacy","24","11","C:/Users/Jennifer Wright/Desktop/PSYC5613/STERNBERGTASK/th-subject-4.csv","legacy","3 4","Lentiform Loewenfeld","3.3.3","1","y","0","left","left","left","left","NA","500","8622","6619","500","NA","2","legacy","2","1024","2","48000","-16","experiment","4","even","3","247904","244457","245683","4313","98154","245688","NA","4321","91533","249912","250414","246694","12946","249911","NA","SternbergTask","37","25250","37","yes","1024"
"100","100","678.763157895","678.763157895","black","experiment","legacy","legacy","legacy","0","uniform","1","undefined","1","left","37","37","37","0","0","37","37","0","0","37","37","37","0","37","0","10/25/20 16:16:52","The main experiment item","yes","SternbergTask.osexp","C:\Users\Jennifer Wright\Desktop\PSYC5613\STERNBERGTASK","no","mono","no","18","no","white","no","yes","768","legacy","25","11","C:/Users/Jennifer Wright/Desktop/PSYC5613/STERNBERGTASK/th-subject-4.csv","legacy","6 2","Lentiform Loewenfeld","3.3.3","1","y","0","left","left","left","left","NA","543","8622","6619","543","NA","2","legacy","2","1024","2","48000","-16","experiment","4","even","6","253926","250470","251703","4313","98154","251709","NA","4321","91533","255933","256478","252719","12946","255933","NA","SternbergTask","38","25793","38","yes","1024"
"100","100","678.128205128","678.128205128","black","experiment","legacy","legacy","legacy","0","uniform","1","undefined","1","right","38","38","38","0","0","38","38","0","0","38","38","38","0","38","0","10/25/20 16:16:52","The main experiment item","yes","SternbergTask.osexp","C:\Users\Jennifer Wright\Desktop\PSYC5613\STERNBERGTASK","no","mono","no","18","no","white","no","yes","768","legacy","26","11","C:/Users/Jennifer Wright/Desktop/PSYC5613/STERNBERGTASK/th-subject-4.csv","legacy","2 7 5","Lentiform Loewenfeld","3.3.3","0","n","0","right","left","left","right","NA","654","8622","6619","654","NA","2","legacy","3","1024","2","48000","-16","experiment","4","even","8","259973","256534","257755","4313","98154","257760","NA","4321","91533","261979","262635","258766","12946","261979","NA","SternbergTask","39","26447","39","yes","1024"
"100","100","674.575","674.575","black","experiment","legacy","legacy","legacy","0","uniform","1","undefined","1","right","39","39","39","0","0","39","39","0","0","39","39","39","0","39","0","10/25/20 16:16:52","The main experiment item","yes","SternbergTask.osexp","C:\Users\Jennifer Wright\Desktop\PSYC5613\STERNBERGTASK","no","mono","no","18","no","white","no","yes","768","legacy","27","11","C:/Users/Jennifer Wright/Desktop/PSYC5613/STERNBERGTASK/th-subject-4.csv","legacy","2 8 6 3 1","Lentiform Loewenfeld","3.3.3","0","n","0","right","left","left","right","NA","536","8622","6619","536","NA","2","legacy","5","1024","2","48000","-16","experiment","4","even","7","266138","262695","263919","4313","98154","263924","NA","4321","91533","268144","268683","264930","12946","268144","NA","SternbergTask","40","26983","40","yes","1024"
"100","100","676.658536585","676.658536585","black","experiment","legacy","legacy","legacy","0","uniform","1","undefined","1","right","40","40","40","0","0","40","40","0","0","40","40","40","0","40","0","10/25/20 16:16:52","The main experiment item","yes","SternbergTask.osexp","C:\Users\Jennifer Wright\Desktop\PSYC5613\STERNBERGTASK","no","mono","no","18","no","white","no","yes","768","legacy","28","11","C:/Users/Jennifer Wright/Desktop/PSYC5613/STERNBERGTASK/th-subject-4.csv","legacy","8 6 3 4 7","Lentiform Loewenfeld","3.3.3","0","n","0","right","left","left","right","NA","760","8622","6619","760","NA","2","legacy","5","1024","2","48000","-16","experiment","4","even","1","272178","268735","269958","4313","98154","269963","NA","4321","91533","274185","274947","270968","12946","274184","NA","SternbergTask","41","27743","41","yes","1024"
"100","100","679","679","black","experiment","legacy","legacy","legacy","0","uniform","1","undefined","1","right","41","41","41","0","0","41","41","0","0","41","41","41","0","41","0","10/25/20 16:16:52","The main experiment item","yes","SternbergTask.osexp","C:\Users\Jennifer Wright\Desktop\PSYC5613\STERNBERGTASK","no","mono","no","18","no","white","no","yes","768","legacy","29","11","C:/Users/Jennifer Wright/Desktop/PSYC5613/STERNBERGTASK/th-subject-4.csv","legacy","8 5 7 3 6","Lentiform Loewenfeld","3.3.3","0","n","0","right","left","left","right","NA","775","8622","6619","775","NA","2","legacy","5","1024","2","48000","-16","experiment","4","even","9","278452","275020","276236","4313","98154","276241","NA","4321","91533","280462","281239","277246","12946","280461","NA","SternbergTask","42","28518","42","yes","1024"
"100","100","673.744186047","673.744186047","black","experiment","legacy","legacy","legacy","0","uniform","1","undefined","1","left","42","42","42","0","0","42","42","0","0","42","42","42","0","42","0","10/25/20 16:16:52","The main experiment item","yes","SternbergTask.osexp","C:\Users\Jennifer Wright\Desktop\PSYC5613\STERNBERGTASK","no","mono","no","18","no","white","no","yes","768","legacy","30","11","C:/Users/Jennifer Wright/Desktop/PSYC5613/STERNBERGTASK/th-subject-4.csv","legacy","2 3 7 4","Lentiform Loewenfeld","3.3.3","1","y","0","left","left","left","left","NA","453","8622","6619","453","NA","2","legacy","4","1024","2","48000","-16","experiment","4","even","2","284755","281300","282537","4313","98154","282543","NA","4321","91533","286762","287217","283549","12946","286762","NA","SternbergTask","43","28971","43","yes","1024"
"100","100","672.5","672.5","black","experiment","legacy","legacy","legacy","0","uniform","1","undefined","1","left","43","43","43","0","0","43","43","0","0","43","43","43","0","43","0","10/25/20 16:16:52","The main experiment item","yes","SternbergTask.osexp","C:\Users\Jennifer Wright\Desktop\PSYC5613\STERNBERGTASK","no","mono","no","18","no","white","no","yes","768","legacy","31","11","C:/Users/Jennifer Wright/Desktop/PSYC5613/STERNBERGTASK/th-subject-4.csv","legacy","3 9 7 6 4","Lentiform Loewenfeld","3.3.3","3","y","0","left","left","left","left","NA","619","8622","6619","619","NA","2","legacy","5","1024","2","48000","-16","experiment","4","even","7","290712","287277","288497","4313","98154","288502","NA","4321","91533","292718","293339","289508","12946","292718","NA","SternbergTask","44","29590","44","yes","1024"
"100","100","668.555555556","668.555555556","black","experiment","legacy","legacy","legacy","0","uniform","1","undefined","1","right","44","44","44","0","0","44","44","0","0","44","44","44","0","44","0","10/25/20 16:16:52","The main experiment item","yes","SternbergTask.osexp","C:\Users\Jennifer Wright\Desktop\PSYC5613\STERNBERGTASK","no","mono","no","18","no","white","no","yes","768","legacy","32","11","C:/Users/Jennifer Wright/Desktop/PSYC5613/STERNBERGTASK/th-subject-4.csv","legacy","7 1","Lentiform Loewenfeld","3.3.3","0","n","0","right","left","left","right","NA","495","8622","6619","495","NA","2","legacy","2","1024","2","48000","-16","experiment","4","even","8","296869","293399","294655","4313","98154","294660","NA","4321","91533","298876","299373","295665","12946","298876","NA","SternbergTask","45","30085","45","yes","1024"
"100","100","667.413043478","667.413043478","black","experiment","legacy","legacy","legacy","0","uniform","1","undefined","1","left","45","45","45","0","0","45","45","0","0","45","45","45","0","45","0","10/25/20 16:16:52","The main experiment item","yes","SternbergTask.osexp","C:\Users\Jennifer Wright\Desktop\PSYC5613\STERNBERGTASK","no","mono","no","18","no","white","no","yes","768","legacy","33","11","C:/Users/Jennifer Wright/Desktop/PSYC5613/STERNBERGTASK/th-subject-4.csv","legacy","8 7 3","Lentiform Loewenfeld","3.3.3","1","y","0","left","left","left","left","NA","616","8622","6619","616","NA","2","legacy","3","1024","2","48000","-16","experiment","4","even","8","302864","299419","300648","4313","98154","300653","NA","4321","91533","304869","305488","301658","12946","304869","NA","SternbergTask","46","30701","46","yes","1024"
"100","100","664.212765957","664.212765957","black","experiment","legacy","legacy","legacy","0","uniform","1","undefined","1","right","46","46","46","0","0","46","46","0","0","46","46","46","0","46","0","10/25/20 16:16:52","The main experiment item","yes","SternbergTask.osexp","C:\Users\Jennifer Wright\Desktop\PSYC5613\STERNBERGTASK","no","mono","no","18","no","white","no","yes","768","legacy","34","11","C:/Users/Jennifer Wright/Desktop/PSYC5613/STERNBERGTASK/th-subject-4.csv","legacy","1 7 5 2 9","Lentiform Loewenfeld","3.3.3","0","n","0","right","left","left","right","NA","517","8622","6619","517","NA","2","legacy","5","1024","2","48000","-16","experiment","4","even","3","308998","305555","306777","4313","98154","306783","NA","4321","91533","311005","311525","307791","12946","311004","NA","SternbergTask","47","31218","47","yes","1024"
"100","100","664.5","664.5","black","experiment","legacy","legacy","legacy","0","uniform","1","undefined","1","left","47","47","47","0","0","47","47","0","0","47","47","47","0","47","0","10/25/20 16:16:52","The main experiment item","yes","SternbergTask.osexp","C:\Users\Jennifer Wright\Desktop\PSYC5613\STERNBERGTASK","no","mono","no","18","no","white","no","yes","768","legacy","35","11","C:/Users/Jennifer Wright/Desktop/PSYC5613/STERNBERGTASK/th-subject-4.csv","legacy","8 5 4 7 3 1","Lentiform Loewenfeld","3.3.3","2","y","0","left","left","left","left","NA","678","8622","6619","678","NA","2","legacy","6","1024","2","48000","-16","experiment","4","even","5","315057","311598","312840","4313","98154","312845","NA","4321","91533","317063","317743","313851","12946","317063","NA","SternbergTask","48","31896","48","yes","1024"
"100","100","662.693877551","662.693877551","black","experiment","legacy","legacy","legacy","0","uniform","1","undefined","1","right","48","48","48","0","0","48","48","0","0","48","48","48","0","48","0","10/25/20 16:16:52","The main experiment item","yes","SternbergTask.osexp","C:\Users\Jennifer Wright\Desktop\PSYC5613\STERNBERGTASK","no","mono","no","18","no","white","no","yes","768","legacy","36","11","C:/Users/Jennifer Wright/Desktop/PSYC5613/STERNBERGTASK/th-subject-4.csv","legacy","1 5 3 2 8","Lentiform Loewenfeld","3.3.3","0","n","0","right","left","left","right","NA","576","8622","6619","576","NA","2","legacy","5","1024","2","48000","-16","experiment","4","even","4","321233","317796","319015","4313","98154","319020","NA","4321","91533","323240","323818","320029","12946","323240","NA","SternbergTask","49","32472","49","yes","1024"
"100","100","663.94","663.94","black","experiment","legacy","legacy","legacy","0","uniform","1","undefined","1","left","49","49","49","0","0","49","49","0","0","49","49","49","0","49","0","10/25/20 16:16:52","The main experiment item","yes","SternbergTask.osexp","C:\Users\Jennifer Wright\Desktop\PSYC5613\STERNBERGTASK","no","mono","no","18","no","white","no","yes","768","legacy","37","11","C:/Users/Jennifer Wright/Desktop/PSYC5613/STERNBERGTASK/th-subject-4.csv","legacy","4 1 8 7 5","Lentiform Loewenfeld","3.3.3","3","y","0","left","left","left","left","NA","725","8622","6619","725","NA","2","legacy","5","1024","2","48000","-16","experiment","4","even","8","327324","323884","325107","4313","98154","325112","NA","4321","91533","329330","330058","326118","12946","329330","NA","SternbergTask","50","33197","50","yes","1024"
"100","100","666.019607843","666.019607843","black","experiment","legacy","legacy","legacy","0","uniform","1","undefined","1","right","50","50","50","0","0","50","50","0","0","50","50","50","0","50","0","10/25/20 16:16:52","The main experiment item","yes","SternbergTask.osexp","C:\Users\Jennifer Wright\Desktop\PSYC5613\STERNBERGTASK","no","mono","no","18","no","white","no","yes","768","legacy","38","11","C:/Users/Jennifer Wright/Desktop/PSYC5613/STERNBERGTASK/th-subject-4.csv","legacy","3 4 9 6 7 8","Lentiform Loewenfeld","3.3.3","0","n","0","right","left","left","right","NA","770","8622","6619","770","NA","2","legacy","6","1024","2","48000","-16","experiment","4","even","2","333602","330162","331386","4313","98154","331391","NA","4321","91533","335610","336382","332398","12946","335610","NA","SternbergTask","51","33967","51","yes","1024"
"100","100","661.711538462","661.711538462","black","experiment","legacy","legacy","legacy","0","uniform","1","undefined","1","right","51","51","51","0","0","51","51","0","0","51","51","51","0","51","0","10/25/20 16:16:52","The main experiment item","yes","SternbergTask.osexp","C:\Users\Jennifer Wright\Desktop\PSYC5613\STERNBERGTASK","no","mono","no","18","no","white","no","yes","768","legacy","39","11","C:/Users/Jennifer Wright/Desktop/PSYC5613/STERNBERGTASK/th-subject-4.csv","legacy","1","Lentiform Loewenfeld","3.3.3","0","n","0","right","left","left","right","NA","442","8622","6619","442","NA","2","legacy","1","1024","2","48000","-16","experiment","4","even","7","339860","336415","337644","4313","98154","337649","NA","4321","91533","341870","342315","338654","12946","341869","NA","SternbergTask","52","34409","52","yes","1024"
"100","100","662.962264151","662.962264151","black","experiment","legacy","legacy","legacy","0","uniform","1","undefined","1","left","52","52","52","0","0","52","52","0","0","52","52","52","0","52","0","10/25/20 16:16:52","The main experiment item","yes","SternbergTask.osexp","C:\Users\Jennifer Wright\Desktop\PSYC5613\STERNBERGTASK","no","mono","no","18","no","white","no","yes","768","legacy","40","11","C:/Users/Jennifer Wright/Desktop/PSYC5613/STERNBERGTASK/th-subject-4.csv","legacy","6 9 7 4 5 1","Lentiform Loewenfeld","3.3.3","2","y","0","left","left","left","left","NA","728","8622","6619","728","NA","2","legacy","6","1024","2","48000","-16","experiment","4","even","9","345824","342370","343608","4313","98154","343613","NA","4321","91533","347829","348559","344618","12946","347829","NA","SternbergTask","53","35137","53","yes","1024"
"100","100","660.555555556","660.555555556","black","experiment","legacy","legacy","legacy","0","uniform","1","undefined","1","right","53","53","53","0","0","53","53","0","0","53","53","53","0","53","0","10/25/20 16:16:52","The main experiment item","yes","SternbergTask.osexp","C:\Users\Jennifer Wright\Desktop\PSYC5613\STERNBERGTASK","no","mono","no","18","no","white","no","yes","768","legacy","41","11","C:/Users/Jennifer Wright/Desktop/PSYC5613/STERNBERGTASK/th-subject-4.csv","legacy","8 4 3 5","Lentiform Loewenfeld","3.3.3","0","n","0","right","left","left","right","NA","533","8622","6619","533","NA","2","legacy","4","1024","2","48000","-16","experiment","4","even","6","352056","348615","349838","4313","98154","349843","NA","4321","91533","354069","354605","350849","12946","354068","NA","SternbergTask","54","35670","54","yes","1024"
"100","100","660.581818182","660.581818182","black","experiment","legacy","legacy","legacy","0","uniform","1","undefined","1","left","54","54","54","0","0","54","54","0","0","54","54","54","0","54","0","10/25/20 16:16:52","The main experiment item","yes","SternbergTask.osexp","C:\Users\Jennifer Wright\Desktop\PSYC5613\STERNBERGTASK","no","mono","no","18","no","white","no","yes","768","legacy","42","11","C:/Users/Jennifer Wright/Desktop/PSYC5613/STERNBERGTASK/th-subject-4.csv","legacy","5 2 6","Lentiform Loewenfeld","3.3.3","2","y","0","left","left","left","left","NA","662","8622","6619","662","NA","2","legacy","3","1024","2","48000","-16","experiment","4","even","2","358105","354657","355886","4313","98154","355891","NA","4321","91533","360111","360776","356896","12946","360111","NA","SternbergTask","55","36332","55","yes","1024"
"100","100","659.107142857","659.107142857","black","experiment","legacy","legacy","legacy","0","uniform","1","undefined","1","right","55","55","55","0","0","55","55","0","0","55","55","55","0","55","0","10/25/20 16:16:52","The main experiment item","yes","SternbergTask.osexp","C:\Users\Jennifer Wright\Desktop\PSYC5613\STERNBERGTASK","no","mono","no","18","no","white","no","yes","768","legacy","43","11","C:/Users/Jennifer Wright/Desktop/PSYC5613/STERNBERGTASK/th-subject-4.csv","legacy","2 5 1 4","Lentiform Loewenfeld","3.3.3","0","n","0","right","left","left","right","NA","578","8622","6619","578","NA","2","legacy","4","1024","2","48000","-16","experiment","4","even","6","364278","360836","362060","4313","98154","362065","NA","4321","91533","366287","366868","363072","12946","366287","NA","SternbergTask","56","36910","56","yes","1024"
"100","100","657.421052632","657.421052632","black","experiment","legacy","legacy","legacy","0","uniform","1","undefined","1","right","56","56","56","0","0","56","56","0","0","56","56","56","0","56","0","10/25/20 16:16:52","The main experiment item","yes","SternbergTask.osexp","C:\Users\Jennifer Wright\Desktop\PSYC5613\STERNBERGTASK","no","mono","no","18","no","white","no","yes","768","legacy","44","11","C:/Users/Jennifer Wright/Desktop/PSYC5613/STERNBERGTASK/th-subject-4.csv","legacy","8 5 4 2 9 6","Lentiform Loewenfeld","3.3.3","0","n","0","right","left","left","right","NA","563","8622","6619","563","NA","2","legacy","6","1024","2","48000","-16","experiment","4","even","3","370371","366923","368146","4313","98154","368151","NA","4321","91533","372377","372942","369157","12946","372377","NA","SternbergTask","57","37473","57","yes","1024"
"100","100","656.586206897","656.586206897","black","experiment","legacy","legacy","legacy","0","uniform","1","undefined","1","right","57","57","57","0","0","57","57","0","0","57","57","57","0","57","0","10/25/20 16:16:52","The main experiment item","yes","SternbergTask.osexp","C:\Users\Jennifer Wright\Desktop\PSYC5613\STERNBERGTASK","no","mono","no","18","no","white","no","yes","768","legacy","45","11","C:/Users/Jennifer Wright/Desktop/PSYC5613/STERNBERGTASK/th-subject-4.csv","legacy","2 6 4 3 9","Lentiform Loewenfeld","3.3.3","0","n","0","right","left","left","right","NA","609","8622","6619","609","NA","2","legacy","5","1024","2","48000","-16","experiment","4","even","1","376464","373014","374247","4313","98154","374253","NA","4321","91533","378470","379082","375259","12946","378470","NA","SternbergTask","58","38082","58","yes","1024"
"100","100","655.830508475","655.830508475","black","experiment","legacy","legacy","legacy","0","uniform","1","undefined","1","right","58","58","58","0","0","58","58","0","0","58","58","58","0","58","0","10/25/20 16:16:52","The main experiment item","yes","SternbergTask.osexp","C:\Users\Jennifer Wright\Desktop\PSYC5613\STERNBERGTASK","no","mono","no","18","no","white","no","yes","768","legacy","46","11","C:/Users/Jennifer Wright/Desktop/PSYC5613/STERNBERGTASK/th-subject-4.csv","legacy","9 7 4 5 8","Lentiform Loewenfeld","3.3.3","0","n","0","right","left","left","right","NA","612","8622","6619","612","NA","2","legacy","5","1024","2","48000","-16","experiment","4","even","6","382582","379146","380365","4313","98154","380371","NA","4321","91533","384587","385202","381377","12946","384587","NA","SternbergTask","59","38694","59","yes","1024"
"100","100","658.783333333","658.783333333","black","experiment","legacy","legacy","legacy","0","uniform","1","undefined","1","left","59","59","59","0","0","59","59","0","0","59","59","59","0","59","0","10/25/20 16:16:52","The main experiment item","yes","SternbergTask.osexp","C:\Users\Jennifer Wright\Desktop\PSYC5613\STERNBERGTASK","no","mono","no","18","no","white","no","yes","768","legacy","47","11","C:/Users/Jennifer Wright/Desktop/PSYC5613/STERNBERGTASK/th-subject-4.csv","legacy","7 1 8 5 6 2","Lentiform Loewenfeld","3.3.3","2","y","0","left","left","left","left","NA","833","8622","6619","833","NA","2","legacy","6","1024","2","48000","-16","experiment","4","even","1","388711","385255","386489","4313","98154","386494","NA","4321","91533","390722","391558","387504","12946","390721","NA","SternbergTask","60","39527","60","yes","1024"
"100","100","656.967213115","656.967213115","black","experiment","legacy","legacy","legacy","0","uniform","1","undefined","1","right","60","60","60","0","0","60","60","0","0","60","60","60","0","60","0","10/25/20 16:16:52","The main experiment item","yes","SternbergTask.osexp","C:\Users\Jennifer Wright\Desktop\PSYC5613\STERNBERGTASK","no","mono","no","18","no","white","no","yes","768","legacy","48","11","C:/Users/Jennifer Wright/Desktop/PSYC5613/STERNBERGTASK/th-subject-4.csv","legacy","3 9 1","Lentiform Loewenfeld","3.3.3","0","n","0","right","left","left","right","NA","548","8622","6619","548","NA","2","legacy","3","1024","2","48000","-16","experiment","4","even","7","395061","391611","392845","4313","98154","392851","NA","4321","91533","397067","397618","393855","12946","397067","NA","SternbergTask","61","40075","61","yes","1024"
"100","100","656.258064516","656.258064516","black","experiment","legacy","legacy","legacy","0","uniform","1","undefined","1","left","61","61","61","0","0","61","61","0","0","61","61","61","0","61","0","10/25/20 16:16:52","The main experiment item","yes","SternbergTask.osexp","C:\Users\Jennifer Wright\Desktop\PSYC5613\STERNBERGTASK","no","mono","no","18","no","white","no","yes","768","legacy","49","11","C:/Users/Jennifer Wright/Desktop/PSYC5613/STERNBERGTASK/th-subject-4.csv","legacy","9 6 2 4 1","Lentiform Loewenfeld","3.3.3","4","y","0","left","left","left","left","NA","613","8622","6619","613","NA","2","legacy","5","1024","2","48000","-16","experiment","4","even","4","401083","397643","398864","4313","98154","398869","NA","4321","91533","403090","403706","399876","12946","403089","NA","SternbergTask","62","40688","62","yes","1024"
"100","100","654.603174603","654.603174603","black","experiment","legacy","legacy","legacy","0","uniform","1","undefined","1","right","62","62","62","0","0","62","62","0","0","62","62","62","0","62","0","10/25/20 16:16:52","The main experiment item","yes","SternbergTask.osexp","C:\Users\Jennifer Wright\Desktop\PSYC5613\STERNBERGTASK","no","mono","no","18","no","white","no","yes","768","legacy","50","11","C:/Users/Jennifer Wright/Desktop/PSYC5613/STERNBERGTASK/th-subject-4.csv","legacy","4 2 6 9","Lentiform Loewenfeld","3.3.3","0","n","0","right","left","left","right","NA","552","8622","6619","552","NA","2","legacy","4","1024","2","48000","-16","experiment","4","even","7","407184","403739","404963","4313","98154","404968","NA","4321","91533","409191","409746","405976","12946","409191","NA","SternbergTask","63","41240","63","yes","1024"
"100","100","653.984375","653.984375","black","experiment","legacy","legacy","legacy","0","uniform","1","undefined","1","right","63","63","63","0","0","63","63","0","0","63","63","63","0","63","0","10/25/20 16:16:52","The main experiment item","yes","SternbergTask.osexp","C:\Users\Jennifer Wright\Desktop\PSYC5613\STERNBERGTASK","no","mono","no","18","no","white","no","yes","768","legacy","51","11","C:/Users/Jennifer Wright/Desktop/PSYC5613/STERNBERGTASK/th-subject-4.csv","legacy","1 6 4 3 9 7","Lentiform Loewenfeld","3.3.3","0","n","0","right","left","left","right","NA","615","8622","6619","615","NA","2","legacy","6","1024","2","48000","-16","experiment","4","even","8","413259","409810","411041","4313","98154","411047","NA","4321","91533","415266","415884","412053","12946","415265","NA","SternbergTask","64","41855","64","yes","1024"
"100","100","655.876923077","655.876923077","black","experiment","legacy","legacy","legacy","0","uniform","1","undefined","1","left","64","64","64","0","0","64","64","0","0","64","64","64","0","64","0","10/25/20 16:16:52","The main experiment item","yes","SternbergTask.osexp","C:\Users\Jennifer Wright\Desktop\PSYC5613\STERNBERGTASK","no","mono","no","18","no","white","no","yes","768","legacy","52","11","C:/Users/Jennifer Wright/Desktop/PSYC5613/STERNBERGTASK/th-subject-4.csv","legacy","7 4 2 6 3 5","Lentiform Loewenfeld","3.3.3","6","y","0","left","left","left","left","NA","777","8622","6619","777","NA","2","legacy","6","1024","2","48000","-16","experiment","4","even","5","419345","415907","417128","4313","98154","417133","NA","4321","91533","421350","422130","418140","12946","421350","NA","SternbergTask","65","42632","65","yes","1024"
"100","100","662.454545455","662.454545455","black","experiment","legacy","legacy","legacy","0","uniform","1","undefined","1","right","65","65","65","0","0","65","65","0","0","65","65","65","0","65","0","10/25/20 16:16:52","The main experiment item","yes","SternbergTask.osexp","C:\Users\Jennifer Wright\Desktop\PSYC5613\STERNBERGTASK","no","mono","no","18","no","white","no","yes","768","legacy","53","11","C:/Users/Jennifer Wright/Desktop/PSYC5613/STERNBERGTASK/th-subject-4.csv","legacy","7 4 2 8 1 9","Lentiform Loewenfeld","3.3.3","0","n","0","right","left","left","right","NA","1090","8622","6619","1090","NA","2","legacy","6","1024","2","48000","-16","experiment","4","even","5","425626","422186","423409","4313","98154","423414","NA","4321","91533","427636","428729","424420","12946","427636","NA","SternbergTask","66","43722","66","yes","1024"
"100","100","676.134328358","676.134328358","black","experiment","legacy","legacy","legacy","0","uniform","1","undefined","1","left","66","66","66","0","0","66","66","0","0","66","66","66","0","66","0","10/25/20 16:16:52","The main experiment item","yes","SternbergTask.osexp","C:\Users\Jennifer Wright\Desktop\PSYC5613\STERNBERGTASK","no","mono","no","18","no","white","no","yes","768","legacy","54","11","C:/Users/Jennifer Wright/Desktop/PSYC5613/STERNBERGTASK/th-subject-4.csv","legacy","3 4 9 6 2 9","Lentiform Loewenfeld","3.3.3","5","y","0","left","left","left","left","NA","1579","8622","6619","1579","NA","2","legacy","6","1024","2","48000","-16","experiment","4","even","2","432194","428748","429976","4313","98154","429982","NA","4321","91533","434201","435783","430988","12946","434200","NA","SternbergTask","67","45301","67","yes","1024"
"100","100","676.602941176","676.602941176","black","experiment","legacy","legacy","legacy","0","uniform","1","undefined","1","left","67","67","67","0","0","67","67","0","0","67","67","67","0","67","0","10/25/20 16:16:52","The main experiment item","yes","SternbergTask.osexp","C:\Users\Jennifer Wright\Desktop\PSYC5613\STERNBERGTASK","no","mono","no","18","no","white","no","yes","768","legacy","55","11","C:/Users/Jennifer Wright/Desktop/PSYC5613/STERNBERGTASK/th-subject-4.csv","legacy","1 4 9 3 2 5","Lentiform Loewenfeld","3.3.3","3","y","0","left","left","left","left","NA","708","8622","6619","708","NA","2","legacy","6","1024","2","48000","-16","experiment","4","even","9","439260","435800","437042","4313","98154","437048","NA","4321","91533","441272","441984","438054","12946","441272","NA","SternbergTask","68","46009","68","yes","1024"
"100","100","675.15942029","675.15942029","black","experiment","legacy","legacy","legacy","0","uniform","1","undefined","1","right","68","68","68","0","0","68","68","0","0","68","68","68","0","68","0","10/25/20 16:16:52","The main experiment item","yes","SternbergTask.osexp","C:\Users\Jennifer Wright\Desktop\PSYC5613\STERNBERGTASK","no","mono","no","18","no","white","no","yes","768","legacy","56","11","C:/Users/Jennifer Wright/Desktop/PSYC5613/STERNBERGTASK/th-subject-4.csv","legacy","4 2 7 6 1 3","Lentiform Loewenfeld","3.3.3","0","n","0","right","left","left","right","NA","577","8622","6619","577","NA","2","legacy","6","1024","2","48000","-16","experiment","4","even","8","445475","442034","443257","4313","98154","443262","NA","4321","91533","447481","448061","444269","12946","447481","NA","SternbergTask","69","46586","69","yes","1024"
"100","100","673.428571429","673.428571429","black","experiment","legacy","legacy","legacy","0","uniform","1","undefined","1","right","69","69","69","0","0","69","69","0","0","69","69","69","0","69","0","10/25/20 16:16:52","The main experiment item","yes","SternbergTask.osexp","C:\Users\Jennifer Wright\Desktop\PSYC5613\STERNBERGTASK","no","mono","no","18","no","white","no","yes","768","legacy","57","11","C:/Users/Jennifer Wright/Desktop/PSYC5613/STERNBERGTASK/th-subject-4.csv","legacy","5 2","Lentiform Loewenfeld","3.3.3","0","n","0","right","left","left","right","NA","554","8622","6619","554","NA","2","legacy","2","1024","2","48000","-16","experiment","4","even","7","451556","448110","449334","4313","98154","449340","NA","4321","91533","453564","454121","450349","12946","453563","NA","SternbergTask","70","47140","70","yes","1024"
"100","100","672.211267606","672.211267606","black","experiment","legacy","legacy","legacy","0","uniform","1","undefined","1","right","70","70","70","0","0","70","70","0","0","70","70","70","0","70","0","10/25/20 16:16:52","The main experiment item","yes","SternbergTask.osexp","C:\Users\Jennifer Wright\Desktop\PSYC5613\STERNBERGTASK","no","mono","no","18","no","white","no","yes","768","legacy","58","11","C:/Users/Jennifer Wright/Desktop/PSYC5613/STERNBERGTASK/th-subject-4.csv","legacy","9 5 3 2 8 6","Lentiform Loewenfeld","3.3.3","0","n","0","right","left","left","right","NA","587","8622","6619","587","NA","2","legacy","6","1024","2","48000","-16","experiment","4","even","7","457624","454177","455404","4313","98154","455409","NA","4321","91533","459632","460221","456415","12946","459632","NA","SternbergTask","71","47727","71","yes","1024"
"100","100","669.972222222","669.972222222","black","experiment","legacy","legacy","legacy","0","uniform","1","undefined","1","left","71","71","71","0","0","71","71","0","0","71","71","71","0","71","0","10/25/20 16:16:52","The main experiment item","yes","SternbergTask.osexp","C:\Users\Jennifer Wright\Desktop\PSYC5613\STERNBERGTASK","no","mono","no","18","no","white","no","yes","768","legacy","59","11","C:/Users/Jennifer Wright/Desktop/PSYC5613/STERNBERGTASK/th-subject-4.csv","legacy","8 3","Lentiform Loewenfeld","3.3.3","2","y","0","left","left","left","left","NA","511","8622","6619","511","NA","2","legacy","2","1024","2","48000","-16","experiment","4","even","3","463717","460280","461499","4313","98154","461504","NA","4321","91533","465725","466240","462510","12946","465724","NA","SternbergTask","72","48238","72","yes","1024"
"100","100","668.219178082","668.219178082","black","experiment","legacy","legacy","legacy","0","uniform","1","undefined","1","right","72","72","72","0","0","72","72","0","0","72","72","72","0","72","0","10/25/20 16:16:52","The main experiment item","yes","SternbergTask.osexp","C:\Users\Jennifer Wright\Desktop\PSYC5613\STERNBERGTASK","no","mono","no","18","no","white","no","yes","768","legacy","60","11","C:/Users/Jennifer Wright/Desktop/PSYC5613/STERNBERGTASK/th-subject-4.csv","legacy","7 9","Lentiform Loewenfeld","3.3.3","0","n","0","right","left","left","right","NA","542","8622","6619","542","NA","2","legacy","2","1024","2","48000","-16","experiment","4","even","1","469740","466299","467522","4313","98154","467528","NA","4321","91533","471754","472300","468534","12946","471753","NA","SternbergTask","73","48780","73","yes","1024"
"100","100","668.027027027","668.027027027","black","experiment","legacy","legacy","legacy","0","uniform","1","undefined","1","right","73","73","73","0","0","73","73","0","0","73","73","73","0","73","0","10/25/20 16:16:52","The main experiment item","yes","SternbergTask.osexp","C:\Users\Jennifer Wright\Desktop\PSYC5613\STERNBERGTASK","no","mono","no","18","no","white","no","yes","768","legacy","61","11","C:/Users/Jennifer Wright/Desktop/PSYC5613/STERNBERGTASK/th-subject-4.csv","legacy","1 6 4","Lentiform Loewenfeld","3.3.3","0","n","0","right","left","left","right","NA","654","8622","6619","654","NA","2","legacy","3","1024","2","48000","-16","experiment","4","even","7","475808","472362","473591","4313","98154","473596","NA","4321","91533","477815","478472","474602","12946","477815","NA","SternbergTask","74","49434","74","yes","1024"
"100","100","667.186666667","667.186666667","black","experiment","legacy","legacy","legacy","0","uniform","1","undefined","1","right","74","74","74","0","0","74","74","0","0","74","74","74","0","74","0","10/25/20 16:16:52","The main experiment item","yes","SternbergTask.osexp","C:\Users\Jennifer Wright\Desktop\PSYC5613\STERNBERGTASK","no","mono","no","18","no","white","no","yes","768","legacy","62","11","C:/Users/Jennifer Wright/Desktop/PSYC5613/STERNBERGTASK/th-subject-4.csv","legacy","7 9 1 6","Lentiform Loewenfeld","3.3.3","0","n","0","right","left","left","right","NA","605","8622","6619","605","NA","2","legacy","4","1024","2","48000","-16","experiment","4","even","4","482004","478540","479773","4313","98154","479778","NA","4321","91533","484011","484619","480790","12946","484011","NA","SternbergTask","75","50039","75","yes","1024"
"100","100","665.592105263","665.592105263","black","experiment","legacy","legacy","legacy","0","uniform","1","undefined","1","left","75","75","75","0","0","75","75","0","0","75","75","75","0","75","0","10/25/20 16:16:52","The main experiment item","yes","SternbergTask.osexp","C:\Users\Jennifer Wright\Desktop\PSYC5613\STERNBERGTASK","no","mono","no","18","no","white","no","yes","768","legacy","63","11","C:/Users/Jennifer Wright/Desktop/PSYC5613/STERNBERGTASK/th-subject-4.csv","legacy","8 9 5 6 7","Lentiform Loewenfeld","3.3.3","1","y","0","left","left","left","left","NA","546","8622","6619","546","NA","2","legacy","5","1024","2","48000","-16","experiment","4","even","8","488120","484675","485905","4313","98154","485910","NA","4321","91533","490127","490676","486914","12946","490127","NA","SternbergTask","76","50585","76","yes","1024"
"100","100","665.376623377","665.376623377","black","experiment","legacy","legacy","legacy","0","uniform","1","undefined","1","right","76","76","76","0","0","76","76","0","0","76","76","76","0","76","0","10/25/20 16:16:52","The main experiment item","yes","SternbergTask.osexp","C:\Users\Jennifer Wright\Desktop\PSYC5613\STERNBERGTASK","no","mono","no","18","no","white","no","yes","768","legacy","64","11","C:/Users/Jennifer Wright/Desktop/PSYC5613/STERNBERGTASK/th-subject-4.csv","legacy","5 3 2 6 9 8","Lentiform Loewenfeld","3.3.3","0","n","0","right","left","left","right","NA","649","8622","6619","649","NA","2","legacy","6","1024","2","48000","-16","experiment","4","even","4","494184","490730","491964","4313","98154","491969","NA","4321","91533","496191","496843","492978","12946","496190","NA","SternbergTask","77","51234","77","yes","1024"
"100","100","665.58974359","665.58974359","black","experiment","legacy","legacy","legacy","0","uniform","1","undefined","1","left","77","77","77","0","0","77","77","0","0","77","77","77","0","77","0","10/25/20 16:16:52","The main experiment item","yes","SternbergTask.osexp","C:\Users\Jennifer Wright\Desktop\PSYC5613\STERNBERGTASK","no","mono","no","18","no","white","no","yes","768","legacy","65","11","C:/Users/Jennifer Wright/Desktop/PSYC5613/STERNBERGTASK/th-subject-4.csv","legacy","4 9 7 8 5 3","Lentiform Loewenfeld","3.3.3","4","y","0","left","left","left","left","NA","682","8622","6619","682","NA","2","legacy","6","1024","2","48000","-16","experiment","4","even","8","500309","496862","498086","4313","98154","498091","NA","4321","91533","502315","503001","499099","12946","502315","NA","SternbergTask","78","51916","78","yes","1024"
"100","100","669.139240506","669.139240506","black","experiment","legacy","legacy","legacy","0","uniform","1","undefined","1","left","78","78","78","0","0","78","78","0","0","78","78","78","0","78","0","10/25/20 16:16:52","The main experiment item","yes","SternbergTask.osexp","C:\Users\Jennifer Wright\Desktop\PSYC5613\STERNBERGTASK","no","mono","no","18","no","white","no","yes","768","legacy","66","11","C:/Users/Jennifer Wright/Desktop/PSYC5613/STERNBERGTASK/th-subject-4.csv","legacy","5 2 9 6 1 7","Lentiform Loewenfeld","3.3.3","3","y","0","left","left","left","left","NA","946","8622","6619","946","NA","2","legacy","6","1024","2","48000","-16","experiment","4","even","9","506504","503062","504285","4313","98154","504290","NA","4321","91533","508510","509460","505297","12946","508510","NA","SternbergTask","79","52862","79","yes","1024"
"100","100","669.55","669.55","black","experiment","legacy","legacy","legacy","0","uniform","1","undefined","1","left","79","79","79","0","0","79","79","0","0","79","79","79","0","79","0","10/25/20 16:16:52","The main experiment item","yes","SternbergTask.osexp","C:\Users\Jennifer Wright\Desktop\PSYC5613\STERNBERGTASK","no","mono","no","18","no","white","no","yes","768","legacy","67","11","C:/Users/Jennifer Wright/Desktop/PSYC5613/STERNBERGTASK/th-subject-4.csv","legacy","9 3 8 2 1 4","Lentiform Loewenfeld","3.3.3","3","y","0","left","left","left","left","NA","702","8622","6619","702","NA","2","legacy","6","1024","2","48000","-16","experiment","4","even","8","512961","509516","510742","4313","98154","510748","NA","4321","91533","514967","515672","511755","12946","514967","NA","SternbergTask","80","53564","80","yes","1024"
"100","100","668.197530864","668.197530864","black","experiment","legacy","legacy","legacy","0","uniform","1","undefined","1","left","80","80","80","0","0","80","80","0","0","80","80","80","0","80","0","10/25/20 16:16:52","The main experiment item","yes","SternbergTask.osexp","C:\Users\Jennifer Wright\Desktop\PSYC5613\STERNBERGTASK","no","mono","no","18","no","white","no","yes","768","legacy","68","11","C:/Users/Jennifer Wright/Desktop/PSYC5613/STERNBERGTASK/th-subject-4.csv","legacy","4 6 5 8","Lentiform Loewenfeld","3.3.3","1","y","0","left","left","left","left","NA","560","8622","6619","560","NA","2","legacy","4","1024","2","48000","-16","experiment","4","even","4","519165","515727","516947","4313","98154","516952","NA","4321","91533","521171","521735","517958","12946","521171","NA","SternbergTask","81","54124","81","yes","1024"
"100","100","667.073170732","667.073170732","black","experiment","legacy","legacy","legacy","0","uniform","1","undefined","1","left","81","81","81","0","0","81","81","0","0","81","81","81","0","81","0","10/25/20 16:16:52","The main experiment item","yes","SternbergTask.osexp","C:\Users\Jennifer Wright\Desktop\PSYC5613\STERNBERGTASK","no","mono","no","18","no","white","no","yes","768","legacy","69","11","C:/Users/Jennifer Wright/Desktop/PSYC5613/STERNBERGTASK/th-subject-4.csv","legacy","6 7 8 5","Lentiform Loewenfeld","3.3.3","3","y","0","left","left","left","left","NA","576","8622","6619","576","NA","2","legacy","4","1024","2","48000","-16","experiment","4","even","8","525229","521792","523012","4313","98154","523017","NA","4321","91533","527235","527815","524022","12946","527235","NA","SternbergTask","82","54700","82","yes","1024"
"100","100","665.734939759","665.734939759","black","experiment","legacy","legacy","legacy","0","uniform","1","undefined","1","right","82","82","82","0","0","82","82","0","0","82","82","82","0","82","0","10/25/20 16:16:52","The main experiment item","yes","SternbergTask.osexp","C:\Users\Jennifer Wright\Desktop\PSYC5613\STERNBERGTASK","no","mono","no","18","no","white","no","yes","768","legacy","70","11","C:/Users/Jennifer Wright/Desktop/PSYC5613/STERNBERGTASK/th-subject-4.csv","legacy","1 8 7","Lentiform Loewenfeld","3.3.3","0","n","0","right","left","left","right","NA","556","8622","6619","556","NA","2","legacy","3","1024","2","48000","-16","experiment","4","even","4","531295","527845","529077","4313","98154","529082","NA","4321","91533","533306","533866","530088","12946","533306","NA","SternbergTask","83","55256","83","yes","1024"
"100","100","664.833333333","664.833333333","black","experiment","legacy","legacy","legacy","0","uniform","1","undefined","1","left","83","83","83","0","0","83","83","0","0","83","83","83","0","83","0","10/25/20 16:16:52","The main experiment item","yes","SternbergTask.osexp","C:\Users\Jennifer Wright\Desktop\PSYC5613\STERNBERGTASK","no","mono","no","18","no","white","no","yes","768","legacy","71","11","C:/Users/Jennifer Wright/Desktop/PSYC5613/STERNBERGTASK/th-subject-4.csv","legacy","4 1 5","Lentiform Loewenfeld","3.3.3","2","y","0","left","left","left","left","NA","590","8622","6619","590","NA","2","legacy","3","1024","2","48000","-16","experiment","4","even","1","537393","533956","535178","4313","98154","535183","NA","4321","91533","539398","539991","536187","12946","539398","NA","SternbergTask","84","55846","84","yes","1024"
"100","100","664.752941176","664.752941176","black","experiment","legacy","legacy","legacy","0","uniform","1","undefined","1","right","84","84","84","0","0","84","84","0","0","84","84","84","0","84","0","10/25/20 16:16:52","The main experiment item","yes","SternbergTask.osexp","C:\Users\Jennifer Wright\Desktop\PSYC5613\STERNBERGTASK","no","mono","no","18","no","white","no","yes","768","legacy","72","11","C:/Users/Jennifer Wright/Desktop/PSYC5613/STERNBERGTASK/th-subject-4.csv","legacy","2 8 9","Lentiform Loewenfeld","3.3.3","0","n","0","right","left","left","right","NA","658","8622","6619","658","NA","2","legacy","3","1024","2","48000","-16","experiment","4","even","6","543491","540048","541274","4313","98154","541280","NA","4321","91533","545501","546163","542285","12946","545501","NA","SternbergTask","85","56504","85","yes","1024"
"100","100","663.534883721","663.534883721","black","experiment","legacy","legacy","legacy","0","uniform","1","undefined","1","left","85","85","85","0","0","85","85","0","0","85","85","85","0","85","0","10/25/20 16:16:52","The main experiment item","yes","SternbergTask.osexp","C:\Users\Jennifer Wright\Desktop\PSYC5613\STERNBERGTASK","no","mono","no","18","no","white","no","yes","768","legacy","73","11","C:/Users/Jennifer Wright/Desktop/PSYC5613/STERNBERGTASK/th-subject-4.csv","legacy","6 1 2","Lentiform Loewenfeld","3.3.3","3","y","0","left","left","left","left","NA","560","8622","6619","560","NA","2","legacy","3","1024","2","48000","-16","experiment","4","even","2","549677","546227","547456","4313","98154","547462","NA","4321","91533","551683","552246","548472","12946","551683","NA","SternbergTask","86","57064","86","yes","1024"
"100","100","662.298850575","662.298850575","black","experiment","legacy","legacy","legacy","0","uniform","1","undefined","1","right","86","86","86","0","0","86","86","0","0","86","86","86","0","86","0","10/25/20 16:16:52","The main experiment item","yes","SternbergTask.osexp","C:\Users\Jennifer Wright\Desktop\PSYC5613\STERNBERGTASK","no","mono","no","18","no","white","no","yes","768","legacy","74","11","C:/Users/Jennifer Wright/Desktop/PSYC5613/STERNBERGTASK/th-subject-4.csv","legacy","8 2 1 4 5 9","Lentiform Loewenfeld","3.3.3","0","n","0","right","left","left","right","NA","556","8622","6619","556","NA","2","legacy","6","1024","2","48000","-16","experiment","4","even","7","555738","552300","553523","4313","98154","553528","NA","4321","91533","557745","558304","554534","12946","557744","NA","SternbergTask","87","57620","87","yes","1024"
"100","100","659.647727273","659.647727273","black","experiment","legacy","legacy","legacy","0","uniform","1","undefined","1","left","87","87","87","0","0","87","87","0","0","87","87","87","0","87","0","10/25/20 16:16:52","The main experiment item","yes","SternbergTask.osexp","C:\Users\Jennifer Wright\Desktop\PSYC5613\STERNBERGTASK","no","mono","no","18","no","white","no","yes","768","legacy","75","11","C:/Users/Jennifer Wright/Desktop/PSYC5613/STERNBERGTASK/th-subject-4.csv","legacy","7 8 6 3 1","Lentiform Loewenfeld","3.3.3","5","y","0","left","left","left","left","NA","429","8622","6619","429","NA","2","legacy","5","1024","2","48000","-16","experiment","4","even","1","561804","558358","559579","4313","98154","559584","NA","4321","91533","563812","564245","560597","12946","563811","NA","SternbergTask","88","58049","88","yes","1024"
"98.8764044944","98.8764044944","658.752808989","658.752808989","black","experiment","legacy","legacy","legacy","0","uniform","0","undefined","0","left","88","88","88","0","0","88","88","0","0","88","88","88","0","88","0","10/25/20 16:16:52","The main experiment item","yes","SternbergTask.osexp","C:\Users\Jennifer Wright\Desktop\PSYC5613\STERNBERGTASK","no","mono","no","18","no","white","no","yes","768","legacy","76","11","C:/Users/Jennifer Wright/Desktop/PSYC5613/STERNBERGTASK/th-subject-4.csv","legacy","9 5 8 1","Lentiform Loewenfeld","3.3.3","2","y","0","right","left","left","right","NA","580","8622","6619","580","NA","2","legacy","4","1024","2","48000","-16","experiment","4","even","5","567723","564278","565506","4313","98154","565511","NA","4321","91533","569736","570319","566517","12946","569736","NA","SternbergTask","88","58629","89","yes","1024"
"98.8888888889","98.8888888889","656.755555556","656.755555556","black","experiment","legacy","legacy","legacy","0","uniform","1","undefined","1","left","89","89","89","0","0","89","89","0","0","89","89","89","0","89","0","10/25/20 16:16:52","The main experiment item","yes","SternbergTask.osexp","C:\Users\Jennifer Wright\Desktop\PSYC5613\STERNBERGTASK","no","mono","no","18","no","white","no","yes","768","legacy","77","11","C:/Users/Jennifer Wright/Desktop/PSYC5613/STERNBERGTASK/th-subject-4.csv","legacy","9 4 2","Lentiform Loewenfeld","3.3.3","1","y","0","left","left","left","left","NA","479","8622","6619","479","NA","2","legacy","3","1024","2","48000","-16","experiment","4","even","9","573821","564278","571602","4313","98154","571607","570380","4321","91533","575830","576313","572613","12946","575829","NA","SternbergTask","89","59108","90","yes","1024"
"98.9010989011","98.9010989011","658.505494505","658.505494505","black","experiment","legacy","legacy","legacy","0","uniform","1","undefined","1","right","90","90","90","0","0","90","90","0","0","90","90","90","0","90","0","10/25/20 16:16:52","The main experiment item","yes","SternbergTask.osexp","C:\Users\Jennifer Wright\Desktop\PSYC5613\STERNBERGTASK","no","mono","no","18","no","white","no","yes","768","legacy","78","11","C:/Users/Jennifer Wright/Desktop/PSYC5613/STERNBERGTASK/th-subject-4.csv","legacy","7 3 2 8","Lentiform Loewenfeld","3.3.3","0","n","0","right","left","left","right","NA","816","8622","6619","816","NA","2","legacy","4","1024","2","48000","-16","experiment","4","even","4","579808","576368","577589","4313","98154","577594","570380","4321","91533","581813","582633","578601","12946","581812","NA","SternbergTask","90","59924","91","yes","1024"
"98.9130434783","98.9130434783","657.77173913","657.77173913","black","experiment","legacy","legacy","legacy","0","uniform","1","undefined","1","left","91","91","91","0","0","91","91","0","0","91","91","91","0","91","0","10/25/20 16:16:52","The main experiment item","yes","SternbergTask.osexp","C:\Users\Jennifer Wright\Desktop\PSYC5613\STERNBERGTASK","no","mono","no","18","no","white","no","yes","768","legacy","79","11","C:/Users/Jennifer Wright/Desktop/PSYC5613/STERNBERGTASK/th-subject-4.csv","legacy","9 1 7 2","Lentiform Loewenfeld","3.3.3","2","y","0","left","left","left","left","NA","591","8622","6619","591","NA","2","legacy","4","1024","2","48000","-16","experiment","4","even","1","586148","582696","583929","4313","98154","583935","570380","4321","91533","588154","588748","584941","12946","588154","NA","SternbergTask","91","60515","92","yes","1024"
"98.9247311828","98.9247311828","656.47311828","656.47311828","black","experiment","legacy","legacy","legacy","0","uniform","1","undefined","1","left","92","92","92","0","0","92","92","0","0","92","92","92","0","92","0","10/25/20 16:16:52","The main experiment item","yes","SternbergTask.osexp","C:\Users\Jennifer Wright\Desktop\PSYC5613\STERNBERGTASK","no","mono","no","18","no","white","no","yes","768","legacy","80","11","C:/Users/Jennifer Wright/Desktop/PSYC5613/STERNBERGTASK/th-subject-4.csv","legacy","3 5 4 7","Lentiform Loewenfeld","3.3.3","1","y","0","left","left","left","left","NA","537","8622","6619","537","NA","2","legacy","4","1024","2","48000","-16","experiment","4","even","3","592268","588814","590045","4313","98154","590051","570380","4321","91533","594272","594813","591057","12946","594272","NA","SternbergTask","92","61052","93","yes","1024"
"98.9361702128","98.9361702128","654.691489362","654.691489362","black","experiment","legacy","legacy","legacy","0","uniform","1","undefined","1","left","93","93","93","0","0","93","93","0","0","93","93","93","0","93","0","10/25/20 16:16:52","The main experiment item","yes","SternbergTask.osexp","C:\Users\Jennifer Wright\Desktop\PSYC5613\STERNBERGTASK","no","mono","no","18","no","white","no","yes","768","legacy","81","11","C:/Users/Jennifer Wright/Desktop/PSYC5613/STERNBERGTASK/th-subject-4.csv","legacy","9 8 4","Lentiform Loewenfeld","3.3.3","1","y","0","left","left","left","left","NA","489","8622","6619","489","NA","2","legacy","3","1024","2","48000","-16","experiment","4","even","9","598318","594865","596093","4313","98154","596098","570380","4321","91533","600330","600822","597110","12946","600329","NA","SternbergTask","93","61541","94","yes","1024"
"98.9473684211","98.9473684211","653.031578947","653.031578947","black","experiment","legacy","legacy","legacy","0","uniform","1","undefined","1","right","94","94","94","0","0","94","94","0","0","94","94","94","0","94","0","10/25/20 16:16:52","The main experiment item","yes","SternbergTask.osexp","C:\Users\Jennifer Wright\Desktop\PSYC5613\STERNBERGTASK","no","mono","no","18","no","white","no","yes","768","legacy","82","11","C:/Users/Jennifer Wright/Desktop/PSYC5613/STERNBERGTASK/th-subject-4.csv","legacy","5","Lentiform Loewenfeld","3.3.3","0","n","0","right","left","left","right","NA","497","8622","6619","497","NA","2","legacy","1","1024","2","48000","-16","experiment","4","even","8","604313","600876","602095","4313","98154","602100","570380","4321","91533","606319","606820","603107","12946","606319","NA","SternbergTask","94","62038","95","yes","1024"
"98.9583333333","98.9583333333","653.104166667","653.104166667","black","experiment","legacy","legacy","legacy","0","uniform","1","undefined","1","right","95","95","95","0","0","95","95","0","0","95","95","95","0","95","0","10/25/20 16:16:52","The main experiment item","yes","SternbergTask.osexp","C:\Users\Jennifer Wright\Desktop\PSYC5613\STERNBERGTASK","no","mono","no","18","no","white","no","yes","768","legacy","83","11","C:/Users/Jennifer Wright/Desktop/PSYC5613/STERNBERGTASK/th-subject-4.csv","legacy","1 7 8 3 9","Lentiform Loewenfeld","3.3.3","0","n","0","right","left","left","right","NA","660","8622","6619","660","NA","2","legacy","5","1024","2","48000","-16","experiment","4","even","2","610298","606850","608080","4313","98154","608085","570380","4321","91533","612305","612969","609092","12946","612304","NA","SternbergTask","95","62698","96","yes","1024"
"98.9690721649","98.9690721649","652.927835052","652.927835052","black","experiment","legacy","legacy","legacy","0","uniform","1","undefined","1","left","96","96","96","0","0","96","96","0","0","96","96","96","0","96","0","10/25/20 16:16:52","The main experiment item","yes","SternbergTask.osexp","C:\Users\Jennifer Wright\Desktop\PSYC5613\STERNBERGTASK","no","mono","no","18","no","white","no","yes","768","legacy","84","11","C:/Users/Jennifer Wright/Desktop/PSYC5613/STERNBERGTASK/th-subject-4.csv","legacy","5 7 8 2 3 8","Lentiform Loewenfeld","3.3.3","5","y","0","left","left","left","left","NA","636","8622","6619","636","NA","2","legacy","6","1024","2","48000","-16","experiment","4","even","3","616484","613030","614265","4313","98154","614270","570380","4321","91533","618491","619131","615276","12946","618491","NA","SternbergTask","96","63334","97","yes","1024"
"98.9795918367","98.9795918367","654.887755102","654.887755102","black","experiment","legacy","legacy","legacy","0","uniform","1","undefined","1","right","97","97","97","0","0","97","97","0","0","97","97","97","0","97","0","10/25/20 16:16:52","The main experiment item","yes","SternbergTask.osexp","C:\Users\Jennifer Wright\Desktop\PSYC5613\STERNBERGTASK","no","mono","no","18","no","white","no","yes","768","legacy","85","11","C:/Users/Jennifer Wright/Desktop/PSYC5613/STERNBERGTASK/th-subject-4.csv","legacy","6 7 5 9","Lentiform Loewenfeld","3.3.3","0","n","0","right","left","left","right","NA","845","8622","6619","845","NA","2","legacy","4","1024","2","48000","-16","experiment","4","even","2","622623","619153","620402","4313","98154","620407","570380","4321","91533","624630","625479","621417","12946","624629","NA","SternbergTask","97","64179","98","yes","1024"
"98.9898989899","98.9898989899","659.717171717","659.717171717","black","experiment","legacy","legacy","legacy","0","uniform","1","undefined","1","right","98","98","98","0","0","98","98","0","0","98","98","98","0","98","0","10/25/20 16:16:52","The main experiment item","yes","SternbergTask.osexp","C:\Users\Jennifer Wright\Desktop\PSYC5613\STERNBERGTASK","no","mono","no","18","no","white","no","yes","768","legacy","86","11","C:/Users/Jennifer Wright/Desktop/PSYC5613/STERNBERGTASK/th-subject-4.csv","legacy","2 8 7 9 5 3","Lentiform Loewenfeld","3.3.3","0","n","0","right","left","left","right","NA","1133","8622","6619","1133","NA","2","legacy","6","1024","2","48000","-16","experiment","4","even","6","628982","625539","626764","4313","98154","626769","570380","4321","91533","630988","632125","627775","12946","630988","NA","SternbergTask","98","65312","99","yes","1024"
"99","99","657.38","657.38","black","experiment","legacy","legacy","legacy","0","uniform","1","undefined","1","left","99","99","99","0","0","99","99","0","0","99","99","99","0","99","0","10/25/20 16:16:52","The main experiment item","yes","SternbergTask.osexp","C:\Users\Jennifer Wright\Desktop\PSYC5613\STERNBERGTASK","no","mono","no","18","no","white","no","yes","768","legacy","87","11","C:/Users/Jennifer Wright/Desktop/PSYC5613/STERNBERGTASK/th-subject-4.csv","legacy","6 5","Lentiform Loewenfeld","3.3.3","2","y","0","left","left","left","left","NA","426","8622","6619","426","NA","2","legacy","2","1024","2","48000","-16","experiment","4","even","5","635628","632183","633407","4313","98154","633412","570380","4321","91533","637633","638063","634418","12946","637632","NA","SternbergTask","99","65738","100","yes","1024"
"99.0099009901","99.0099009901","656.257425743","656.257425743","black","experiment","legacy","legacy","legacy","0","uniform","1","undefined","1","left","100","100","100","0","0","100","100","0","0","100","100","100","0","100","0","10/25/20 16:16:52","The main experiment item","yes","SternbergTask.osexp","C:\Users\Jennifer Wright\Desktop\PSYC5613\STERNBERGTASK","no","mono","no","18","no","white","no","yes","768","legacy","88","11","C:/Users/Jennifer Wright/Desktop/PSYC5613/STERNBERGTASK/th-subject-4.csv","legacy","2 4 8 5 1 3","Lentiform Loewenfeld","3.3.3","1","y","0","left","left","left","left","NA","544","8622","6619","544","NA","2","legacy","6","1024","2","48000","-16","experiment","4","even","2","641563","638117","639343","4313","98154","639348","570380","4321","91533","643569","644117","640354","12946","643569","NA","SternbergTask","100","66282","101","yes","1024"
"99.0196078431","99.0196078431","659.029411765","659.029411765","black","experiment","legacy","legacy","legacy","0","uniform","1","undefined","1","right","101","101","101","0","0","101","101","0","0","101","101","101","0","101","0","10/25/20 16:16:52","The main experiment item","yes","SternbergTask.osexp","C:\Users\Jennifer Wright\Desktop\PSYC5613\STERNBERGTASK","no","mono","no","18","no","white","no","yes","768","legacy","89","11","C:/Users/Jennifer Wright/Desktop/PSYC5613/STERNBERGTASK/th-subject-4.csv","legacy","7 8 6 1","Lentiform Loewenfeld","3.3.3","0","n","0","right","left","left","right","NA","939","8622","6619","939","NA","2","legacy","4","1024","2","48000","-16","experiment","4","even","3","647614","644173","645393","4313","98154","645398","570380","4321","91533","649620","650563","646403","12946","649619","NA","SternbergTask","101","67221","102","yes","1024"
"99.0291262136","99.0291262136","658.533980583","658.533980583","black","experiment","legacy","legacy","legacy","0","uniform","1","undefined","1","right","102","102","102","0","0","102","102","0","0","102","102","102","0","102","0","10/25/20 16:16:52","The main experiment item","yes","SternbergTask.osexp","C:\Users\Jennifer Wright\Desktop\PSYC5613\STERNBERGTASK","no","mono","no","18","no","white","no","yes","768","legacy","90","11","C:/Users/Jennifer Wright/Desktop/PSYC5613/STERNBERGTASK/th-subject-4.csv","legacy","4 1","Lentiform Loewenfeld","3.3.3","0","n","0","right","left","left","right","NA","608","8622","6619","608","NA","2","legacy","2","1024","2","48000","-16","experiment","4","even","6","654067","650626","651850","4313","98154","651855","570380","4321","91533","656078","656690","652861","12946","656078","NA","SternbergTask","102","67829","103","yes","1024"
"99.0384615385","99.0384615385","658.615384615","658.615384615","black","experiment","legacy","legacy","legacy","0","uniform","1","undefined","1","left","103","103","103","0","0","103","103","0","0","103","103","103","0","103","0","10/25/20 16:16:52","The main experiment item","yes","SternbergTask.osexp","C:\Users\Jennifer Wright\Desktop\PSYC5613\STERNBERGTASK","no","mono","no","18","no","white","no","yes","768","legacy","91","11","C:/Users/Jennifer Wright/Desktop/PSYC5613/STERNBERGTASK/th-subject-4.csv","legacy","2 5 4 8 7","Lentiform Loewenfeld","3.3.3","3","y","0","left","left","left","left","NA","667","8622","6619","667","NA","2","legacy","5","1024","2","48000","-16","experiment","4","even","4","660207","656759","657982","4313","98154","657988","570380","4321","91533","662215","662886","659001","12946","662214","NA","SternbergTask","103","68496","104","yes","1024"
"99.0476190476","99.0476190476","657.895238095","657.895238095","black","experiment","legacy","legacy","legacy","0","uniform","1","undefined","1","left","104","104","104","0","0","104","104","0","0","104","104","104","0","104","0","10/25/20 16:16:52","The main experiment item","yes","SternbergTask.osexp","C:\Users\Jennifer Wright\Desktop\PSYC5613\STERNBERGTASK","no","mono","no","18","no","white","no","yes","768","legacy","92","11","C:/Users/Jennifer Wright/Desktop/PSYC5613/STERNBERGTASK/th-subject-4.csv","legacy","7 2 3","Lentiform Loewenfeld","3.3.3","3","y","0","left","left","left","left","NA","583","8622","6619","583","NA","2","legacy","3","1024","2","48000","-16","experiment","4","even","3","666373","662936","664156","4313","98154","664162","570380","4321","91533","668380","668967","665168","12946","668379","NA","SternbergTask","104","69079","105","yes","1024"
"99.0566037736","99.0566037736","657.509433962","657.509433962","black","experiment","legacy","legacy","legacy","0","uniform","1","undefined","1","right","105","105","105","0","0","105","105","0","0","105","105","105","0","105","0","10/25/20 16:16:52","The main experiment item","yes","SternbergTask.osexp","C:\Users\Jennifer Wright\Desktop\PSYC5613\STERNBERGTASK","no","mono","no","18","no","white","no","yes","768","legacy","93","11","C:/Users/Jennifer Wright/Desktop/PSYC5613/STERNBERGTASK/th-subject-4.csv","legacy","1 4 3 6 5","Lentiform Loewenfeld","3.3.3","0","n","0","right","left","left","right","NA","617","8622","6619","617","NA","2","legacy","5","1024","2","48000","-16","experiment","4","even","8","672442","669001","670225","4313","98154","670230","570380","4321","91533","674448","675069","671236","12946","674448","NA","SternbergTask","105","69696","106","yes","1024"
"99.0654205607","99.0654205607","655.803738318","655.803738318","black","experiment","legacy","legacy","legacy","0","uniform","1","undefined","1","left","106","106","106","0","0","106","106","0","0","106","106","106","0","106","0","10/25/20 16:16:52","The main experiment item","yes","SternbergTask.osexp","C:\Users\Jennifer Wright\Desktop\PSYC5613\STERNBERGTASK","no","mono","no","18","no","white","no","yes","768","legacy","94","11","C:/Users/Jennifer Wright/Desktop/PSYC5613/STERNBERGTASK/th-subject-4.csv","legacy","3 5 9 6 2 4","Lentiform Loewenfeld","3.3.3","1","y","0","left","left","left","left","NA","475","8622","6619","475","NA","2","legacy","6","1024","2","48000","-16","experiment","4","even","3","678580","675124","676359","4313","98154","676365","570380","4321","91533","680587","681066","677374","12946","680586","NA","SternbergTask","106","70171","107","yes","1024"
"99.0740740741","99.0740740741","656.009259259","656.009259259","black","experiment","legacy","legacy","legacy","0","uniform","1","undefined","1","right","107","107","107","0","0","107","107","0","0","107","107","107","0","107","0","10/25/20 16:16:52","The main experiment item","yes","SternbergTask.osexp","C:\Users\Jennifer Wright\Desktop\PSYC5613\STERNBERGTASK","no","mono","no","18","no","white","no","yes","768","legacy","95","11","C:/Users/Jennifer Wright/Desktop/PSYC5613/STERNBERGTASK/th-subject-4.csv","legacy","7 1 8 4 9 3","Lentiform Loewenfeld","3.3.3","0","n","0","right","left","left","right","NA","678","8622","6619","678","NA","2","legacy","6","1024","2","48000","-16","experiment","4","even","6","684565","681124","682345","4313","98154","682350","570380","4321","91533","686574","687256","683359","12946","686573","NA","SternbergTask","107","70849","108","yes","1024"
"99.0825688073","99.0825688073","655.743119266","655.743119266","black","experiment","legacy","legacy","legacy","0","uniform","1","undefined","1","right","108","108","108","0","0","108","108","0","0","108","108","108","0","108","0","10/25/20 16:16:52","The main experiment item","yes","SternbergTask.osexp","C:\Users\Jennifer Wright\Desktop\PSYC5613\STERNBERGTASK","no","mono","no","18","no","white","no","yes","768","legacy","96","11","C:/Users/Jennifer Wright/Desktop/PSYC5613/STERNBERGTASK/th-subject-4.csv","legacy","8 4 3 9","Lentiform Loewenfeld","3.3.3","0","n","0","right","left","left","right","NA","627","8622","6619","627","NA","2","legacy","4","1024","2","48000","-16","experiment","4","even","5","690755","687310","688534","4313","98154","688539","570380","4321","91533","692765","693396","689548","12946","692764","NA","SternbergTask","108","71476","109","yes","1024"
"99.0909090909","99.0909090909","655.890909091","655.890909091","black","experiment","legacy","legacy","legacy","0","uniform","1","undefined","1","right","109","109","109","0","0","109","109","0","0","109","109","109","0","109","0","10/25/20 16:16:52","The main experiment item","yes","SternbergTask.osexp","C:\Users\Jennifer Wright\Desktop\PSYC5613\STERNBERGTASK","no","mono","no","18","no","white","no","yes","768","legacy","97","11","C:/Users/Jennifer Wright/Desktop/PSYC5613/STERNBERGTASK/th-subject-4.csv","legacy","6 9 4 5 2","Lentiform Loewenfeld","3.3.3","0","n","0","right","left","left","right","NA","672","8622","6619","672","NA","2","legacy","5","1024","2","48000","-16","experiment","4","even","1","696909","693456","694686","4313","98154","694691","570380","4321","91533","698914","699590","695698","12946","698914","NA","SternbergTask","109","72148","110","yes","1024"
"99.0990990991","99.0990990991","654.837837838","654.837837838","black","experiment","legacy","legacy","legacy","0","uniform","1","undefined","1","right","110","110","110","0","0","110","110","0","0","110","110","110","0","110","0","10/25/20 16:16:52","The main experiment item","yes","SternbergTask.osexp","C:\Users\Jennifer Wright\Desktop\PSYC5613\STERNBERGTASK","no","mono","no","18","no","white","no","yes","768","legacy","98","11","C:/Users/Jennifer Wright/Desktop/PSYC5613/STERNBERGTASK/th-subject-4.csv","legacy","6 8","Lentiform Loewenfeld","3.3.3","0","n","0","right","left","left","right","NA","539","8622","6619","539","NA","2","legacy","2","1024","2","48000","-16","experiment","4","even","9","703189","699750","700970","4313","98154","700975","570380","4321","91533","705196","705739","701981","12946","705196","NA","SternbergTask","110","72687","111","yes","1024"
"99.1071428571","99.1071428571","653.241071429","653.241071429","black","experiment","legacy","legacy","legacy","0","uniform","1","undefined","1","left","111","111","111","0","0","111","111","0","0","111","111","111","0","111","0","10/25/20 16:16:52","The main experiment item","yes","SternbergTask.osexp","C:\Users\Jennifer Wright\Desktop\PSYC5613\STERNBERGTASK","no","mono","no","18","no","white","no","yes","768","legacy","99","11","C:/Users/Jennifer Wright/Desktop/PSYC5613/STERNBERGTASK/th-subject-4.csv","legacy","7 8 4 6 9 5","Lentiform Loewenfeld","3.3.3","4","y","0","left","left","left","left","NA","476","8622","6619","476","NA","2","legacy","6","1024","2","48000","-16","experiment","4","even","6","709240","705799","707022","4313","98154","707027","570380","4321","91533","711247","711727","708034","12946","711247","NA","SternbergTask","111","73163","112","yes","1024"
"99.1150442478","99.1150442478","651.309734513","651.309734513","black","experiment","legacy","legacy","legacy","0","uniform","1","undefined","1","left","112","112","112","0","0","112","112","0","0","112","112","112","0","112","0","10/25/20 16:16:52","The main experiment item","yes","SternbergTask.osexp","C:\Users\Jennifer Wright\Desktop\PSYC5613\STERNBERGTASK","no","mono","no","18","no","white","no","yes","768","legacy","100","11","C:/Users/Jennifer Wright/Desktop/PSYC5613/STERNBERGTASK/th-subject-4.csv","legacy","8","Lentiform Loewenfeld","3.3.3","1","y","0","left","left","left","left","NA","435","8622","6619","435","NA","2","legacy","1","1024","2","48000","-16","experiment","4","even","8","715236","711786","713012","4313","98154","713017","570380","4321","91533","717242","717681","714024","12946","717242","NA","SternbergTask","112","73598","113","yes","1024"
"99.1228070175","99.1228070175","655.807017544","655.807017544","black","experiment","legacy","legacy","legacy","0","uniform","1","undefined","1","left","113","113","113","0","0","113","113","0","0","113","113","113","0","113","0","10/25/20 16:16:52","The main experiment item","yes","SternbergTask.osexp","C:\Users\Jennifer Wright\Desktop\PSYC5613\STERNBERGTASK","no","mono","no","18","no","white","no","yes","768","legacy","101","11","C:/Users/Jennifer Wright/Desktop/PSYC5613/STERNBERGTASK/th-subject-4.csv","legacy","8 5 3 7 4 6","Lentiform Loewenfeld","3.3.3","6","y","0","left","left","left","left","NA","1164","8622","6619","1164","NA","2","legacy","6","1024","2","48000","-16","experiment","4","even","6","721195","717744","718978","4313","98154","718983","570380","4321","91533","723202","724370","719989","12946","723202","NA","SternbergTask","113","74762","114","yes","1024"
"99.1304347826","99.1304347826","655.565217391","655.565217391","black","experiment","legacy","legacy","legacy","0","uniform","1","undefined","1","right","114","114","114","0","0","114","114","0","0","114","114","114","0","114","0","10/25/20 16:16:52","The main experiment item","yes","SternbergTask.osexp","C:\Users\Jennifer Wright\Desktop\PSYC5613\STERNBERGTASK","no","mono","no","18","no","white","no","yes","768","legacy","102","11","C:/Users/Jennifer Wright/Desktop/PSYC5613/STERNBERGTASK/th-subject-4.csv","legacy","6 3 1 7 9 8","Lentiform Loewenfeld","3.3.3","0","n","0","right","left","left","right","NA","628","8622","6619","628","NA","2","legacy","6","1024","2","48000","-16","experiment","4","even","4","727853","724394","725626","4313","98154","725631","570380","4321","91533","729860","730492","726643","12946","729859","NA","SternbergTask","114","75390","115","yes","1024"
"99.1379310345","99.1379310345","657.120689655","657.120689655","black","experiment","legacy","legacy","legacy","0","uniform","1","undefined","1","left","115","115","115","0","0","115","115","0","0","115","115","115","0","115","0","10/25/20 16:16:52","The main experiment item","yes","SternbergTask.osexp","C:\Users\Jennifer Wright\Desktop\PSYC5613\STERNBERGTASK","no","mono","no","18","no","white","no","yes","768","legacy","103","11","C:/Users/Jennifer Wright/Desktop/PSYC5613/STERNBERGTASK/th-subject-4.csv","legacy","8 5 1 3 9","Lentiform Loewenfeld","3.3.3","4","y","0","left","left","left","left","NA","836","8622","6619","836","NA","2","legacy","5","1024","2","48000","-16","experiment","4","even","3","734079","730639","731862","4313","98154","731867","570380","4321","91533","736084","736924","732873","12946","736084","NA","SternbergTask","115","76226","116","yes","1024"
