"acc","accuracy","average_response_time","avg_rt","background","block","canvas_backend","clock_backend","color_backend","compensation","coordinates","correct","correct_instruction1","correct_keyboard_response","correct_response","count_ISI","count_Instructions2","count_correctFeedback","count_expSequence","count_experiment","count_experimentLoop","count_fixation","count_incorrectFeedback","count_instruction1","count_keyboard_response","count_logger","count_memorySet","count_practiceLoop","count_probe","count_thankYou","datetime","description","disable_garbage_collection","experiment_file","experiment_path","font_bold","font_family","font_italic","font_size","font_underline","foreground","form_clicks","fullscreen","height","keyboard_backend","live_row","live_row_practiceLoop","logfile","mouse_backend","numberSet","opensesame_codename","opensesame_version","posInSet","present","repeat_cycle","response","response_Instructions2","response_instruction1","response_keyboard_response","response_thankYou","response_time","response_time_Instructions2","response_time_instruction1","response_time_keyboard_response","response_time_thankYou","round_decimals","sampler_backend","setSize","sound_buf_size","sound_channels","sound_freq","sound_sample_size","start","subject_nr","subject_parity","target","time_ISI","time_Instructions2","time_correctFeedback","time_expSequence","time_experiment","time_experimentLoop","time_fixation","time_incorrectFeedback","time_instruction1","time_keyboard_response","time_logger","time_memorySet","time_practiceLoop","time_probe","time_thankYou","title","total_correct","total_response_time","total_responses","uniform_coordinates","width"
"100","100","554","554","black","practice","legacy","legacy","legacy","0","uniform","1","undefined","1","left","0","0","0","0","0","0","0","0","0","0","0","0","0","0","0","10/24/20 21:45:30","The main experiment item","yes","Sternbergtask.osexp","C:\Users\solom\Desktop","no","mono","no","18","no","white","no","yes","768","legacy","0","0","C:/Users/solom/Desktop/MW-subject-4(s).csv","legacy","4 3 1 7 9 8","Lentiform Loewenfeld","3.3.3","1","y","0","left","NA","right","left","NA","554","NA","52448","554","NA","2","legacy","6","1024","2","48000","-16","experiment","4","even","4","59970","NA","NA","57754","3112","NA","57758","NA","3123","61978","62533","58764","55573","61977","NA","Sternberg task","1","554","1","yes","1024"
"100","100","507.5","507.5","black","practice","legacy","legacy","legacy","0","uniform","1","undefined","1","left","1","0","1","1","0","0","1","1","0","1","1","1","0","1","0","10/24/20 21:45:30","The main experiment item","yes","Sternbergtask.osexp","C:\Users\solom\Desktop","no","mono","no","18","no","white","no","yes","768","legacy","1","1","C:/Users/solom/Desktop/MW-subject-4(s).csv","legacy","4 8","Lentiform Loewenfeld","3.3.3","1","y","0","left","NA","right","left","NA","461","NA","52448","461","NA","2","legacy","2","1024","2","48000","-16","experiment","4","even","4","66175","NA","62749","63959","3112","NA","63963","NA","3123","68182","68644","64969","55573","68181","NA","Sternberg task","2","1015","2","yes","1024"
"100","100","562.333333333","562.333333333","black","practice","legacy","legacy","legacy","0","uniform","1","undefined","1","left","2","0","2","2","0","0","2","2","0","2","2","2","0","2","0","10/24/20 21:45:30","The main experiment item","yes","Sternbergtask.osexp","C:\Users\solom\Desktop","no","mono","no","18","no","white","no","yes","768","legacy","2","2","C:/Users/solom/Desktop/MW-subject-4(s).csv","legacy","1 7 9 8 5","Lentiform Loewenfeld","3.3.3","4","y","0","left","NA","right","left","NA","672","NA","52448","672","NA","2","legacy","5","1024","2","48000","-16","experiment","4","even","8","72084","NA","68668","69870","3112","NA","69874","NA","3123","74091","74764","70879","55573","74090","NA","Sternberg task","3","1687","3","yes","1024"
"75","75","586.75","586.75","black","practice","legacy","legacy","legacy","0","uniform","0","undefined","0","right","3","0","3","3","0","0","3","3","0","3","3","3","0","3","0","10/24/20 21:45:30","The main experiment item","yes","Sternbergtask.osexp","C:\Users\solom\Desktop","no","mono","no","18","no","white","no","yes","768","legacy","3","3","C:/Users/solom/Desktop/MW-subject-4(s).csv","legacy","5","Lentiform Loewenfeld","3.3.3","0","n","0","left","NA","right","left","NA","660","NA","52448","660","NA","2","legacy","1","1024","2","48000","-16","experiment","4","even","3","78210","NA","74794","75994","3112","NA","75998","NA","3123","80215","80878","77003","55573","80215","NA","Sternberg task","3","2347","4","yes","1024"
"80","80","559.6","559.6","black","practice","legacy","legacy","legacy","0","uniform","1","undefined","1","left","4","0","4","4","0","0","4","4","0","4","4","4","0","4","0","10/24/20 21:45:30","The main experiment item","yes","Sternbergtask.osexp","C:\Users\solom\Desktop","no","mono","no","18","no","white","no","yes","768","legacy","4","4","C:/Users/solom/Desktop/MW-subject-4(s).csv","legacy","6","Lentiform Loewenfeld","3.3.3","1","y","0","left","NA","right","left","NA","451","NA","52448","451","NA","2","legacy","1","1024","2","48000","-16","experiment","4","even","6","84346","NA","74794","82130","3112","NA","82134","80931","3123","86352","86804","83139","55573","86351","NA","Sternberg task","4","2798","5","yes","1024"
"83.3333333333","83.3333333333","639.666666667","639.666666667","black","practice","legacy","legacy","legacy","0","uniform","1","undefined","1","right","5","0","5","5","0","0","5","5","0","5","5","5","0","5","0","10/24/20 21:45:30","The main experiment item","yes","Sternbergtask.osexp","C:\Users\solom\Desktop","no","mono","no","18","no","white","no","yes","768","legacy","5","5","C:/Users/solom/Desktop/MW-subject-4(s).csv","legacy","9 6 7 4 5","Lentiform Loewenfeld","3.3.3","0","n","0","right","NA","right","right","NA","1040","NA","52448","1040","NA","2","legacy","5","1024","2","48000","-16","experiment","4","even","3","90248","NA","86832","88032","3112","NA","88037","80931","3123","92252","93293","89043","55573","92252","NA","Sternberg task","5","3838","6","yes","1024"
"85.7142857143","85.7142857143","669.142857143","669.142857143","black","practice","legacy","legacy","legacy","0","uniform","1","undefined","1","right","6","0","6","6","0","0","6","6","0","6","6","6","0","6","0","10/24/20 21:45:30","The main experiment item","yes","Sternbergtask.osexp","C:\Users\solom\Desktop","no","mono","no","18","no","white","no","yes","768","legacy","6","6","C:/Users/solom/Desktop/MW-subject-4(s).csv","legacy","4 1 5","Lentiform Loewenfeld","3.3.3","0","n","0","right","NA","right","right","NA","846","NA","52448","846","NA","2","legacy","3","1024","2","48000","-16","experiment","4","even","2","96734","NA","93317","94518","3112","NA","94522","80931","3123","98742","99589","95527","55573","98740","NA","Sternberg task","6","4684","7","yes","1024"
"87.5","87.5","687.75","687.75","black","practice","legacy","legacy","legacy","0","uniform","1","undefined","1","left","7","0","7","7","0","0","7","7","0","7","7","7","0","7","0","10/24/20 21:45:30","The main experiment item","yes","Sternbergtask.osexp","C:\Users\solom\Desktop","no","mono","no","18","no","white","no","yes","768","legacy","7","7","C:/Users/solom/Desktop/MW-subject-4(s).csv","legacy","2 9 4","Lentiform Loewenfeld","3.3.3","3","y","0","left","NA","right","left","NA","818","NA","52448","818","NA","2","legacy","3","1024","2","48000","-16","experiment","4","even","4","103028","NA","99611","100814","3112","NA","100818","80931","3123","105034","105853","101823","55573","105034","NA","Sternberg task","7","5502","8","yes","1024"
"88.8888888889","88.8888888889","695","695","black","practice","legacy","legacy","legacy","0","uniform","1","undefined","1","right","8","0","8","8","0","0","8","8","0","8","8","8","0","8","0","10/24/20 21:45:30","The main experiment item","yes","Sternbergtask.osexp","C:\Users\solom\Desktop","no","mono","no","18","no","white","no","yes","768","legacy","8","8","C:/Users/solom/Desktop/MW-subject-4(s).csv","legacy","3 1 9 4","Lentiform Loewenfeld","3.3.3","0","n","0","right","NA","right","right","NA","753","NA","52448","753","NA","2","legacy","4","1024","2","48000","-16","experiment","4","even","6","109293","NA","105878","107078","3112","NA","107082","80931","3123","111299","112053","108087","55573","111298","NA","Sternberg task","8","6255","9","yes","1024"
"90","90","694","694","black","practice","legacy","legacy","legacy","0","uniform","1","undefined","1","right","9","0","9","9","0","0","9","9","0","9","9","9","0","9","0","10/24/20 21:45:30","The main experiment item","yes","Sternbergtask.osexp","C:\Users\solom\Desktop","no","mono","no","18","no","white","no","yes","768","legacy","9","9","C:/Users/solom/Desktop/MW-subject-4(s).csv","legacy","2 1","Lentiform Loewenfeld","3.3.3","0","n","0","right","NA","right","right","NA","685","NA","52448","685","NA","2","legacy","2","1024","2","48000","-16","experiment","4","even","5","115497","NA","112082","113283","3112","NA","113287","80931","3123","117503","118189","114291","55573","117502","NA","Sternberg task","9","6940","10","yes","1024"
"90.9090909091","90.9090909091","693.545454545","693.545454545","black","practice","legacy","legacy","legacy","0","uniform","1","undefined","1","left","10","0","10","10","0","0","10","10","0","10","10","10","0","10","0","10/24/20 21:45:30","The main experiment item","yes","Sternbergtask.osexp","C:\Users\solom\Desktop","no","mono","no","18","no","white","no","yes","768","legacy","10","10","C:/Users/solom/Desktop/MW-subject-4(s).csv","legacy","1 5 2 9","Lentiform Loewenfeld","3.3.3","2","y","0","left","NA","right","left","NA","689","NA","52448","689","NA","2","legacy","4","1024","2","48000","-16","experiment","4","even","5","121629","NA","118217","119415","3112","NA","119419","80931","3123","123634","124325","120424","55573","123633","NA","Sternberg task","10","7629","11","yes","1024"
"91.6666666667","91.6666666667","694.333333333","694.333333333","black","practice","legacy","legacy","legacy","0","uniform","1","undefined","1","right","11","0","11","11","0","0","11","11","0","11","11","11","0","11","0","10/24/20 21:45:30","The main experiment item","yes","Sternbergtask.osexp","C:\Users\solom\Desktop","no","mono","no","18","no","white","no","yes","768","legacy","11","11","C:/Users/solom/Desktop/MW-subject-4(s).csv","legacy","5 7 8 4 1 2","Lentiform Loewenfeld","3.3.3","0","n","0","right","NA","right","right","NA","703","NA","52448","703","NA","2","legacy","6","1024","2","48000","-16","experiment","4","even","6","127765","NA","124351","125550","3112","NA","125554","80931","3123","129772","130476","126559","55573","129771","NA","Sternberg task","11","8332","12","yes","1024"
"92.3076923077","92.3076923077","678.692307692","678.692307692","black","experiment","legacy","legacy","legacy","0","uniform","1","undefined","1","left","12","0","12","12","0","0","12","12","0","12","12","12","0","12","0","10/24/20 21:45:30","The main experiment item","yes","Sternbergtask.osexp","C:\Users\solom\Desktop","no","mono","no","18","no","white","no","yes","768","legacy","0","11","C:/Users/solom/Desktop/MW-subject-4(s).csv","legacy","8 7 3","Lentiform Loewenfeld","3.3.3","1","y","0","left","right","right","left","NA","491","4483","52448","491","NA","2","legacy","3","1024","2","48000","-16","experiment","4","even","8","138530","131552","130503","136315","3112","136037","136319","80931","3123","140537","141029","137324","55573","140536","NA","Sternberg task","12","8823","13","yes","1024"
"92.8571428571","92.8571428571","669.571428571","669.571428571","black","experiment","legacy","legacy","legacy","0","uniform","1","undefined","1","left","13","0","13","13","0","0","13","13","0","13","13","13","0","13","0","10/24/20 21:45:30","The main experiment item","yes","Sternbergtask.osexp","C:\Users\solom\Desktop","no","mono","no","18","no","white","no","yes","768","legacy","1","11","C:/Users/solom/Desktop/MW-subject-4(s).csv","legacy","9 1 6 7 8","Lentiform Loewenfeld","3.3.3","1","y","0","left","right","right","left","NA","551","4483","52448","551","NA","2","legacy","5","1024","2","48000","-16","experiment","4","even","9","144472","131552","141057","142258","3112","136037","142262","80931","3123","146476","147029","143267","55573","146475","NA","Sternberg task","13","9374","14","yes","1024"
"93.3333333333","93.3333333333","717.6","717.6","black","experiment","legacy","legacy","legacy","0","uniform","1","undefined","1","right","14","0","14","14","0","0","14","14","0","14","14","14","0","14","0","10/24/20 21:45:30","The main experiment item","yes","Sternbergtask.osexp","C:\Users\solom\Desktop","no","mono","no","18","no","white","no","yes","768","legacy","2","11","C:/Users/solom/Desktop/MW-subject-4(s).csv","legacy","1 6 4 3 9 7","Lentiform Loewenfeld","3.3.3","0","n","0","right","right","right","right","NA","1390","4483","52448","1390","NA","2","legacy","6","1024","2","48000","-16","experiment","4","even","8","150481","131552","147067","148266","3112","136037","148270","80931","3123","152485","153876","149274","55573","152485","NA","Sternberg task","14","10764","15","yes","1024"
"87.5","87.5","728.25","728.25","black","experiment","legacy","legacy","legacy","0","uniform","0","undefined","0","left","15","0","15","15","0","0","15","15","0","15","15","15","0","15","0","10/24/20 21:45:30","The main experiment item","yes","Sternbergtask.osexp","C:\Users\solom\Desktop","no","mono","no","18","no","white","no","yes","768","legacy","3","11","C:/Users/solom/Desktop/MW-subject-4(s).csv","legacy","4 7 6 8 2 3","Lentiform Loewenfeld","3.3.3","6","y","0","right","right","right","right","NA","888","4483","52448","888","NA","2","legacy","6","1024","2","48000","-16","experiment","4","even","3","157317","131552","153902","155102","3112","136037","155106","80931","3123","159324","160213","156111","55573","159323","NA","Sternberg task","14","11652","16","yes","1024"
"88.2352941176","88.2352941176","726.941176471","726.941176471","black","experiment","legacy","legacy","legacy","0","uniform","1","undefined","1","right","16","0","16","16","0","0","16","16","0","16","16","16","0","16","0","10/24/20 21:45:30","The main experiment item","yes","Sternbergtask.osexp","C:\Users\solom\Desktop","no","mono","no","18","no","white","no","yes","768","legacy","4","11","C:/Users/solom/Desktop/MW-subject-4(s).csv","legacy","8 9","Lentiform Loewenfeld","3.3.3","0","n","0","right","right","right","right","NA","706","4483","52448","706","NA","2","legacy","2","1024","2","48000","-16","experiment","4","even","5","163653","131552","153902","161437","3112","136037","161441","160238","3123","165658","166365","162447","55573","165657","NA","Sternberg task","15","12358","17","yes","1024"
"88.8888888889","88.8888888889","727.222222222","727.222222222","black","experiment","legacy","legacy","legacy","0","uniform","1","undefined","1","right","17","0","17","17","0","0","17","17","0","17","17","17","0","17","0","10/24/20 21:45:30","The main experiment item","yes","Sternbergtask.osexp","C:\Users\solom\Desktop","no","mono","no","18","no","white","no","yes","768","legacy","5","11","C:/Users/solom/Desktop/MW-subject-4(s).csv","legacy","8 2 1 4 5 9","Lentiform Loewenfeld","3.3.3","0","n","0","right","right","right","right","NA","732","4483","52448","732","NA","2","legacy","6","1024","2","48000","-16","experiment","4","even","7","169810","131552","166398","167595","3112","136037","167599","160238","3123","171815","172549","168604","55573","171815","NA","Sternberg task","16","13090","18","yes","1024"
"89.4736842105","89.4736842105","723.578947368","723.578947368","black","experiment","legacy","legacy","legacy","0","uniform","1","undefined","1","right","18","0","18","18","0","0","18","18","0","18","18","18","0","18","0","10/24/20 21:45:30","The main experiment item","yes","Sternbergtask.osexp","C:\Users\solom\Desktop","no","mono","no","18","no","white","no","yes","768","legacy","6","11","C:/Users/solom/Desktop/MW-subject-4(s).csv","legacy","3 9 1","Lentiform Loewenfeld","3.3.3","0","n","0","right","right","right","right","NA","658","4483","52448","658","NA","2","legacy","3","1024","2","48000","-16","experiment","4","even","7","175986","131552","172574","173773","3112","136037","173777","160238","3123","177993","178653","174782","55573","177992","NA","Sternberg task","17","13748","19","yes","1024"
"90","90","736.1","736.1","black","experiment","legacy","legacy","legacy","0","uniform","1","undefined","1","left","19","0","19","19","0","0","19","19","0","19","19","19","0","19","0","10/24/20 21:45:30","The main experiment item","yes","Sternbergtask.osexp","C:\Users\solom\Desktop","no","mono","no","18","no","white","no","yes","768","legacy","7","11","C:/Users/solom/Desktop/MW-subject-4(s).csv","legacy","3 5 7 1","Lentiform Loewenfeld","3.3.3","3","y","0","left","right","right","left","NA","974","4483","52448","974","NA","2","legacy","4","1024","2","48000","-16","experiment","4","even","7","182113","131552","178703","179899","3112","136037","179903","160238","3123","184117","185093","180908","55573","184116","NA","Sternberg task","18","14722","20","yes","1024"
"90.4761904762","90.4761904762","726.380952381","726.380952381","black","experiment","legacy","legacy","legacy","0","uniform","1","undefined","1","left","20","0","20","20","0","0","20","20","0","20","20","20","0","20","0","10/24/20 21:45:30","The main experiment item","yes","Sternbergtask.osexp","C:\Users\solom\Desktop","no","mono","no","18","no","white","no","yes","768","legacy","8","11","C:/Users/solom/Desktop/MW-subject-4(s).csv","legacy","6 7 9 3 1 2","Lentiform Loewenfeld","3.3.3","1","y","0","left","right","right","left","NA","532","4483","52448","532","NA","2","legacy","6","1024","2","48000","-16","experiment","4","even","6","188538","131552","185119","186323","3112","136037","186327","160238","3123","190544","191077","187332","55573","190544","NA","Sternberg task","19","15254","21","yes","1024"
"90.9090909091","90.9090909091","715.5","715.5","black","experiment","legacy","legacy","legacy","0","uniform","1","undefined","1","left","21","0","21","21","0","0","21","21","0","21","21","21","0","21","0","10/24/20 21:45:30","The main experiment item","yes","Sternbergtask.osexp","C:\Users\solom\Desktop","no","mono","no","18","no","white","no","yes","768","legacy","9","11","C:/Users/solom/Desktop/MW-subject-4(s).csv","legacy","3 2 1 4 7","Lentiform Loewenfeld","3.3.3","2","y","0","left","right","right","left","NA","487","4483","52448","487","NA","2","legacy","5","1024","2","48000","-16","experiment","4","even","2","194535","131552","191124","192320","3112","136037","192324","160238","3123","196540","197029","193329","55573","196539","NA","Sternberg task","20","15741","22","yes","1024"
"91.3043478261","91.3043478261","715.130434783","715.130434783","black","experiment","legacy","legacy","legacy","0","uniform","1","undefined","1","right","22","0","22","22","0","0","22","22","0","22","22","22","0","22","0","10/24/20 21:45:30","The main experiment item","yes","Sternbergtask.osexp","C:\Users\solom\Desktop","no","mono","no","18","no","white","no","yes","768","legacy","10","11","C:/Users/solom/Desktop/MW-subject-4(s).csv","legacy","1 6 4","Lentiform Loewenfeld","3.3.3","0","n","0","right","right","right","right","NA","707","4483","52448","707","NA","2","legacy","3","1024","2","48000","-16","experiment","4","even","7","200475","131552","197058","198259","3112","136037","198263","160238","3123","202481","203189","199269","55573","202481","NA","Sternberg task","21","16448","23","yes","1024"
"87.5","87.5","711.541666667","711.541666667","black","experiment","legacy","legacy","legacy","0","uniform","0","undefined","0","left","23","0","23","23","0","0","23","23","0","23","23","23","0","23","0","10/24/20 21:45:30","The main experiment item","yes","Sternbergtask.osexp","C:\Users\solom\Desktop","no","mono","no","18","no","white","no","yes","768","legacy","11","11","C:/Users/solom/Desktop/MW-subject-4(s).csv","legacy","7 8 4 6 9 5","Lentiform Loewenfeld","3.3.3","4","y","0","right","right","right","right","NA","629","4483","52448","629","NA","2","legacy","6","1024","2","48000","-16","experiment","4","even","6","206633","131552","203218","204419","3112","136037","204423","160238","3123","208638","209269","205429","55573","208638","NA","Sternberg task","21","17077","24","yes","1024"
"88","88","712.32","712.32","black","experiment","legacy","legacy","legacy","0","uniform","1","undefined","1","right","24","0","24","24","0","0","24","24","0","24","24","24","0","24","0","10/24/20 21:45:30","The main experiment item","yes","Sternbergtask.osexp","C:\Users\solom\Desktop","no","mono","no","18","no","white","no","yes","768","legacy","12","11","C:/Users/solom/Desktop/MW-subject-4(s).csv","legacy","7 1 8 4 9 3","Lentiform Loewenfeld","3.3.3","0","n","0","right","right","right","right","NA","731","4483","52448","731","NA","2","legacy","6","1024","2","48000","-16","experiment","4","even","6","212716","131552","203218","210501","3112","136037","210505","209304","3123","214721","215454","211510","55573","214721","NA","Sternberg task","22","17808","25","yes","1024"
"88.4615384615","88.4615384615","711.346153846","711.346153846","black","experiment","legacy","legacy","legacy","0","uniform","1","undefined","1","right","25","0","25","25","0","0","25","25","0","25","25","25","0","25","0","10/24/20 21:45:30","The main experiment item","yes","Sternbergtask.osexp","C:\Users\solom\Desktop","no","mono","no","18","no","white","no","yes","768","legacy","13","11","C:/Users/solom/Desktop/MW-subject-4(s).csv","legacy","1 3 2 6 9","Lentiform Loewenfeld","3.3.3","0","n","0","right","right","right","right","NA","687","4483","52448","687","NA","2","legacy","5","1024","2","48000","-16","experiment","4","even","5","218894","131552","215479","216679","3112","136037","216683","209304","3123","220901","221590","217688","55573","220900","NA","Sternberg task","23","18495","26","yes","1024"
"88.8888888889","88.8888888889","709.703703704","709.703703704","black","experiment","legacy","legacy","legacy","0","uniform","1","undefined","1","left","26","0","26","26","0","0","26","26","0","26","26","26","0","26","0","10/24/20 21:45:30","The main experiment item","yes","Sternbergtask.osexp","C:\Users\solom\Desktop","no","mono","no","18","no","white","no","yes","768","legacy","14","11","C:/Users/solom/Desktop/MW-subject-4(s).csv","legacy","2 4 8 5 1 3","Lentiform Loewenfeld","3.3.3","1","y","0","left","right","right","left","NA","667","4483","52448","667","NA","2","legacy","6","1024","2","48000","-16","experiment","4","even","2","225052","131552","221644","222840","3112","136037","222844","209304","3123","227057","227726","223847","55573","227057","NA","Sternberg task","24","19162","27","yes","1024"
"89.2857142857","89.2857142857","706.892857143","706.892857143","black","experiment","legacy","legacy","legacy","0","uniform","1","undefined","1","left","27","0","27","27","0","0","27","27","0","27","27","27","0","27","0","10/24/20 21:45:30","The main experiment item","yes","Sternbergtask.osexp","C:\Users\solom\Desktop","no","mono","no","18","no","white","no","yes","768","legacy","15","11","C:/Users/solom/Desktop/MW-subject-4(s).csv","legacy","4 3 2 5 8","Lentiform Loewenfeld","3.3.3","2","y","0","left","right","right","left","NA","631","4483","52448","631","NA","2","legacy","5","1024","2","48000","-16","experiment","4","even","3","231166","131552","227751","228951","3112","136037","228955","209304","3123","233173","233806","229960","55573","233172","NA","Sternberg task","25","19793","28","yes","1024"
"89.6551724138","89.6551724138","696.344827586","696.344827586","black","experiment","legacy","legacy","legacy","0","uniform","1","undefined","1","left","28","0","28","28","0","0","28","28","0","28","28","28","0","28","0","10/24/20 21:45:30","The main experiment item","yes","Sternbergtask.osexp","C:\Users\solom\Desktop","no","mono","no","18","no","white","no","yes","768","legacy","16","11","C:/Users/solom/Desktop/MW-subject-4(s).csv","legacy","8","Lentiform Loewenfeld","3.3.3","1","y","0","left","right","right","left","NA","401","4483","52448","401","NA","2","legacy","1","1024","2","48000","-16","experiment","4","even","8","237254","131552","233835","235039","3112","136037","235043","209304","3123","239259","239661","236048","55573","239258","NA","Sternberg task","26","20194","29","yes","1024"
"90","90","688.666666667","688.666666667","black","experiment","legacy","legacy","legacy","0","uniform","1","undefined","1","left","29","0","29","29","0","0","29","29","0","29","29","29","0","29","0","10/24/20 21:45:30","The main experiment item","yes","Sternbergtask.osexp","C:\Users\solom\Desktop","no","mono","no","18","no","white","no","yes","768","legacy","17","11","C:/Users/solom/Desktop/MW-subject-4(s).csv","legacy","6 1 2","Lentiform Loewenfeld","3.3.3","3","y","0","left","right","right","left","NA","466","4483","52448","466","NA","2","legacy","3","1024","2","48000","-16","experiment","4","even","2","243110","131552","239695","240895","3112","136037","240899","209304","3123","245114","245581","241904","55573","245114","NA","Sternberg task","27","20660","30","yes","1024"
"90.3225806452","90.3225806452","701.903225806","701.903225806","black","experiment","legacy","legacy","legacy","0","uniform","1","undefined","1","right","30","0","30","30","0","0","30","30","0","30","30","30","0","30","0","10/24/20 21:45:30","The main experiment item","yes","Sternbergtask.osexp","C:\Users\solom\Desktop","no","mono","no","18","no","white","no","yes","768","legacy","18","11","C:/Users/solom/Desktop/MW-subject-4(s).csv","legacy","6 9 4 5 3 2","Lentiform Loewenfeld","3.3.3","0","n","0","right","right","right","right","NA","1099","4483","52448","1099","NA","2","legacy","6","1024","2","48000","-16","experiment","4","even","8","249019","131552","245605","246806","3112","136037","246810","209304","3123","251024","252125","247813","55573","251023","NA","Sternberg task","28","21759","31","yes","1024"
"90.625","90.625","701.03125","701.03125","black","experiment","legacy","legacy","legacy","0","uniform","1","undefined","1","right","31","0","31","31","0","0","31","31","0","31","31","31","0","31","0","10/24/20 21:45:30","The main experiment item","yes","Sternbergtask.osexp","C:\Users\solom\Desktop","no","mono","no","18","no","white","no","yes","768","legacy","19","11","C:/Users/solom/Desktop/MW-subject-4(s).csv","legacy","4 8 1 2","Lentiform Loewenfeld","3.3.3","0","n","0","right","right","right","right","NA","674","4483","52448","674","NA","2","legacy","4","1024","2","48000","-16","experiment","4","even","7","255570","131552","252157","253355","3112","136037","253359","209304","3123","257577","258253","254365","55573","257576","NA","Sternberg task","29","22433","32","yes","1024"
"90.9090909091","90.9090909091","706.848484848","706.848484848","black","experiment","legacy","legacy","legacy","0","uniform","1","undefined","1","right","32","0","32","32","0","0","32","32","0","32","32","32","0","32","0","10/24/20 21:45:30","The main experiment item","yes","Sternbergtask.osexp","C:\Users\solom\Desktop","no","mono","no","18","no","white","no","yes","768","legacy","20","11","C:/Users/solom/Desktop/MW-subject-4(s).csv","legacy","4 2 7 6 1 3","Lentiform Loewenfeld","3.3.3","0","n","0","right","right","right","right","NA","893","4483","52448","893","NA","2","legacy","6","1024","2","48000","-16","experiment","4","even","8","261689","131552","258274","259474","3112","136037","259478","209304","3123","263694","264589","260483","55573","263693","NA","Sternberg task","30","23326","33","yes","1024"
"88.2352941176","88.2352941176","723.970588235","723.970588235","black","experiment","legacy","legacy","legacy","0","uniform","0","undefined","0","right","33","0","33","33","0","0","33","33","0","33","33","33","0","33","0","10/24/20 21:45:30","The main experiment item","yes","Sternbergtask.osexp","C:\Users\solom\Desktop","no","mono","no","18","no","white","no","yes","768","legacy","21","11","C:/Users/solom/Desktop/MW-subject-4(s).csv","legacy","2 8 7 9 5 3","Lentiform Loewenfeld","3.3.3","0","n","0","left","right","right","left","NA","1289","4483","52448","1289","NA","2","legacy","6","1024","2","48000","-16","experiment","4","even","6","268035","131552","264620","265820","3112","136037","265824","209304","3123","270042","271333","266829","55573","270042","NA","Sternberg task","30","24615","34","yes","1024"
"88.5714285714","88.5714285714","722.2","722.2","black","experiment","legacy","legacy","legacy","0","uniform","1","undefined","1","left","34","0","34","34","0","0","34","34","0","34","34","34","0","34","0","10/24/20 21:45:30","The main experiment item","yes","Sternbergtask.osexp","C:\Users\solom\Desktop","no","mono","no","18","no","white","no","yes","768","legacy","22","11","C:/Users/solom/Desktop/MW-subject-4(s).csv","legacy","6 5","Lentiform Loewenfeld","3.3.3","2","y","0","left","right","right","left","NA","662","4483","52448","662","NA","2","legacy","2","1024","2","48000","-16","experiment","4","even","5","274767","131552","264620","272552","3112","136037","272556","271353","3123","276774","277438","273561","55573","276774","NA","Sternberg task","31","25277","35","yes","1024"
"88.8888888889","88.8888888889","720.777777778","720.777777778","black","experiment","legacy","legacy","legacy","0","uniform","1","undefined","1","right","35","0","35","35","0","0","35","35","0","35","35","35","0","35","0","10/24/20 21:45:30","The main experiment item","yes","Sternbergtask.osexp","C:\Users\solom\Desktop","no","mono","no","18","no","white","no","yes","768","legacy","23","11","C:/Users/solom/Desktop/MW-subject-4(s).csv","legacy","8 4 3 9","Lentiform Loewenfeld","3.3.3","0","n","0","right","right","right","right","NA","671","4483","52448","671","NA","2","legacy","4","1024","2","48000","-16","experiment","4","even","5","280880","131552","277465","278666","3112","136037","278671","271353","3123","282885","283558","279675","55573","282884","NA","Sternberg task","32","25948","36","yes","1024"
"89.1891891892","89.1891891892","719.675675676","719.675675676","black","experiment","legacy","legacy","legacy","0","uniform","1","undefined","1","left","36","0","36","36","0","0","36","36","0","36","36","36","0","36","0","10/24/20 21:45:30","The main experiment item","yes","Sternbergtask.osexp","C:\Users\solom\Desktop","no","mono","no","18","no","white","no","yes","768","legacy","24","11","C:/Users/solom/Desktop/MW-subject-4(s).csv","legacy","4 9 7 8 5 3","Lentiform Loewenfeld","3.3.3","4","y","0","left","right","right","left","NA","680","4483","52448","680","NA","2","legacy","6","1024","2","48000","-16","experiment","4","even","8","286997","131552","283584","284783","3112","136037","284787","271353","3123","289004","289686","285792","55573","289003","NA","Sternberg task","33","26628","37","yes","1024"
"89.4736842105","89.4736842105","720.552631579","720.552631579","black","experiment","legacy","legacy","legacy","0","uniform","1","undefined","1","right","37","0","37","37","0","0","37","37","0","37","37","37","0","37","0","10/24/20 21:45:30","The main experiment item","yes","Sternbergtask.osexp","C:\Users\solom\Desktop","no","mono","no","18","no","white","no","yes","768","legacy","25","11","C:/Users/solom/Desktop/MW-subject-4(s).csv","legacy","8 6 3 4 7","Lentiform Loewenfeld","3.3.3","0","n","0","right","right","right","right","NA","753","4483","52448","753","NA","2","legacy","5","1024","2","48000","-16","experiment","4","even","1","293143","131552","289727","290927","3112","136037","290931","271353","3123","295146","295901","291936","55573","295146","NA","Sternberg task","34","27381","38","yes","1024"
"89.7435897436","89.7435897436","712.538461538","712.538461538","black","experiment","legacy","legacy","legacy","0","uniform","1","undefined","1","left","38","0","38","38","0","0","38","38","0","38","38","38","0","38","0","10/24/20 21:45:30","The main experiment item","yes","Sternbergtask.osexp","C:\Users\solom\Desktop","no","mono","no","18","no","white","no","yes","768","legacy","26","11","C:/Users/solom/Desktop/MW-subject-4(s).csv","legacy","8 3","Lentiform Loewenfeld","3.3.3","2","y","0","left","right","right","left","NA","408","4483","52448","408","NA","2","legacy","2","1024","2","48000","-16","experiment","4","even","3","299344","131552","295929","297128","3112","136037","297132","271353","3123","301348","301758","298137","55573","301348","NA","Sternberg task","35","27789","39","yes","1024"
"90","90","716.75","716.75","black","experiment","legacy","legacy","legacy","0","uniform","1","undefined","1","right","39","0","39","39","0","0","39","39","0","39","39","39","0","39","0","10/24/20 21:45:30","The main experiment item","yes","Sternbergtask.osexp","C:\Users\solom\Desktop","no","mono","no","18","no","white","no","yes","768","legacy","27","11","C:/Users/solom/Desktop/MW-subject-4(s).csv","legacy","1 7 8 3 9","Lentiform Loewenfeld","3.3.3","0","n","0","right","right","right","right","NA","881","4483","52448","881","NA","2","legacy","5","1024","2","48000","-16","experiment","4","even","2","305197","131552","301781","302986","3112","136037","302990","271353","3123","307203","308086","303993","55573","307202","NA","Sternberg task","36","28670","40","yes","1024"
"87.8048780488","87.8048780488","717.12195122","717.12195122","black","experiment","legacy","legacy","legacy","0","uniform","0","undefined","0","left","40","0","40","40","0","0","40","40","0","40","40","40","0","40","0","10/24/20 21:45:30","The main experiment item","yes","Sternbergtask.osexp","C:\Users\solom\Desktop","no","mono","no","18","no","white","no","yes","768","legacy","28","11","C:/Users/solom/Desktop/MW-subject-4(s).csv","legacy","7 4 2 6 3 5","Lentiform Loewenfeld","3.3.3","6","y","0","right","right","right","right","NA","732","4483","52448","732","NA","2","legacy","6","1024","2","48000","-16","experiment","4","even","5","311538","131552","308116","309322","3112","136037","309327","271353","3123","313544","314278","310332","55573","313544","NA","Sternberg task","36","29402","41","yes","1024"
"88.0952380952","88.0952380952","713.19047619","713.19047619","black","experiment","legacy","legacy","legacy","0","uniform","1","undefined","1","left","41","0","41","41","0","0","41","41","0","41","41","41","0","41","0","10/24/20 21:45:30","The main experiment item","yes","Sternbergtask.osexp","C:\Users\solom\Desktop","no","mono","no","18","no","white","no","yes","768","legacy","29","11","C:/Users/solom/Desktop/MW-subject-4(s).csv","legacy","9 5 8 1","Lentiform Loewenfeld","3.3.3","2","y","0","left","right","right","left","NA","552","4483","52448","552","NA","2","legacy","4","1024","2","48000","-16","experiment","4","even","5","317718","131552","308116","315504","3112","136037","315509","314303","3123","319724","320278","316512","55573","319723","NA","Sternberg task","37","29954","42","yes","1024"
"86.0465116279","86.0465116279","707.186046512","707.186046512","black","experiment","legacy","legacy","legacy","0","uniform","0","undefined","0","left","42","0","42","42","0","0","42","42","0","42","42","42","0","42","0","10/24/20 21:45:30","The main experiment item","yes","Sternbergtask.osexp","C:\Users\solom\Desktop","no","mono","no","18","no","white","no","yes","768","legacy","30","11","C:/Users/solom/Desktop/MW-subject-4(s).csv","legacy","7","Lentiform Loewenfeld","3.3.3","1","y","0","right","right","right","right","NA","455","4483","52448","455","NA","2","legacy","1","1024","2","48000","-16","experiment","4","even","7","323719","131552","320304","321503","3112","136037","321507","314303","3123","325725","326182","322512","55573","325724","NA","Sternberg task","37","30409","43","yes","1024"
"86.3636363636","86.3636363636","704.25","704.25","black","experiment","legacy","legacy","legacy","0","uniform","1","undefined","1","left","43","0","43","43","0","0","43","43","0","43","43","43","0","43","0","10/24/20 21:45:30","The main experiment item","yes","Sternbergtask.osexp","C:\Users\solom\Desktop","no","mono","no","18","no","white","no","yes","768","legacy","31","11","C:/Users/solom/Desktop/MW-subject-4(s).csv","legacy","7 6","Lentiform Loewenfeld","3.3.3","2","y","0","left","right","right","left","NA","578","4483","52448","578","NA","2","legacy","2","1024","2","48000","-16","experiment","4","even","6","329622","131552","320304","327407","3112","136037","327411","326205","3123","331626","332206","328417","55573","331625","NA","Sternberg task","38","30987","44","yes","1024"
"86.6666666667","86.6666666667","702.777777778","702.777777778","black","experiment","legacy","legacy","legacy","0","uniform","1","undefined","1","right","44","0","44","44","0","0","44","44","0","44","44","44","0","44","0","10/24/20 21:45:30","The main experiment item","yes","Sternbergtask.osexp","C:\Users\solom\Desktop","no","mono","no","18","no","white","no","yes","768","legacy","32","11","C:/Users/solom/Desktop/MW-subject-4(s).csv","legacy","4 2 6 9","Lentiform Loewenfeld","3.3.3","0","n","0","right","right","right","right","NA","638","4483","52448","638","NA","2","legacy","4","1024","2","48000","-16","experiment","4","even","7","335646","131552","332232","333431","3112","136037","333435","326205","3123","337653","338294","334441","55573","337652","NA","Sternberg task","39","31625","45","yes","1024"
"84.7826086957","84.7826086957","707.239130435","707.239130435","black","experiment","legacy","legacy","legacy","0","uniform","0","undefined","0","right","45","0","45","45","0","0","45","45","0","45","45","45","0","45","0","10/24/20 21:45:30","The main experiment item","yes","Sternbergtask.osexp","C:\Users\solom\Desktop","no","mono","no","18","no","white","no","yes","768","legacy","33","11","C:/Users/solom/Desktop/MW-subject-4(s).csv","legacy","7 3 2 8","Lentiform Loewenfeld","3.3.3","0","n","0","left","right","right","left","NA","908","4483","52448","908","NA","2","legacy","4","1024","2","48000","-16","experiment","4","even","4","341737","131552","338316","339522","3112","136037","339526","326205","3123","343744","344654","340531","55573","343743","NA","Sternberg task","39","32533","46","yes","1024"
"85.1063829787","85.1063829787","703.638297872","703.638297872","black","experiment","legacy","legacy","legacy","0","uniform","1","undefined","1","left","46","0","46","46","0","0","46","46","0","46","46","46","0","46","0","10/24/20 21:45:30","The main experiment item","yes","Sternbergtask.osexp","C:\Users\solom\Desktop","no","mono","no","18","no","white","no","yes","768","legacy","34","11","C:/Users/solom/Desktop/MW-subject-4(s).csv","legacy","7 1 3","Lentiform Loewenfeld","3.3.3","2","y","0","left","right","right","left","NA","538","4483","52448","538","NA","2","legacy","3","1024","2","48000","-16","experiment","4","even","1","348102","131552","338316","345887","3112","136037","345891","344686","3123","350106","350646","346896","55573","350106","NA","Sternberg task","40","33071","47","yes","1024"
"85.4166666667","85.4166666667","701.229166667","701.229166667","black","experiment","legacy","legacy","legacy","0","uniform","1","undefined","1","right","47","0","47","47","0","0","47","47","0","47","47","47","0","47","0","10/24/20 21:45:30","The main experiment item","yes","Sternbergtask.osexp","C:\Users\solom\Desktop","no","mono","no","18","no","white","no","yes","768","legacy","35","11","C:/Users/solom/Desktop/MW-subject-4(s).csv","legacy","5 7 3","Lentiform Loewenfeld","3.3.3","0","n","0","right","right","right","right","NA","588","4483","52448","588","NA","2","legacy","3","1024","2","48000","-16","experiment","4","even","9","354083","131552","350671","351870","3112","136037","351874","344686","3123","356088","356678","352879","55573","356088","NA","Sternberg task","41","33659","48","yes","1024"
"85.7142857143","85.7142857143","705.448979592","705.448979592","black","experiment","legacy","legacy","legacy","0","uniform","1","undefined","1","left","48","0","48","48","0","0","48","48","0","48","48","48","0","48","0","10/24/20 21:45:30","The main experiment item","yes","Sternbergtask.osexp","C:\Users\solom\Desktop","no","mono","no","18","no","white","no","yes","768","legacy","36","11","C:/Users/solom/Desktop/MW-subject-4(s).csv","legacy","3 5 4 7","Lentiform Loewenfeld","3.3.3","1","y","0","left","right","right","left","NA","908","4483","52448","908","NA","2","legacy","4","1024","2","48000","-16","experiment","4","even","3","360121","131552","356706","357905","3112","136037","357909","344686","3123","362128","363039","358915","55573","362127","NA","Sternberg task","42","34567","49","yes","1024"
"86","86","708.14","708.14","black","experiment","legacy","legacy","legacy","0","uniform","1","undefined","1","right","49","0","49","49","0","0","49","49","0","49","49","49","0","49","0","10/24/20 21:45:30","The main experiment item","yes","Sternbergtask.osexp","C:\Users\solom\Desktop","no","mono","no","18","no","white","no","yes","768","legacy","37","11","C:/Users/solom/Desktop/MW-subject-4(s).csv","legacy","5 3 2 6 9 8","Lentiform Loewenfeld","3.3.3","0","n","0","right","right","right","right","NA","840","4483","52448","840","NA","2","legacy","6","1024","2","48000","-16","experiment","4","even","4","366480","131552","363067","364268","3112","136037","364272","344686","3123","368484","369327","365275","55573","368484","NA","Sternberg task","43","35407","50","yes","1024"
"86.2745098039","86.2745098039","714.254901961","714.254901961","black","experiment","legacy","legacy","legacy","0","uniform","1","undefined","1","left","50","0","50","50","0","0","50","50","0","50","50","50","0","50","0","10/24/20 21:45:30","The main experiment item","yes","Sternbergtask.osexp","C:\Users\solom\Desktop","no","mono","no","18","no","white","no","yes","768","legacy","38","11","C:/Users/solom/Desktop/MW-subject-4(s).csv","legacy","3 9 7 6 4","Lentiform Loewenfeld","3.3.3","3","y","0","left","right","right","left","NA","1020","4483","52448","1020","NA","2","legacy","5","1024","2","48000","-16","experiment","4","even","7","372776","131552","369360","370561","3112","136037","370565","344686","3123","374783","375806","371570","55573","374782","NA","Sternberg task","44","36427","51","yes","1024"
"86.5384615385","86.5384615385","710.884615385","710.884615385","black","experiment","legacy","legacy","legacy","0","uniform","1","undefined","1","right","51","0","51","51","0","0","51","51","0","51","51","51","0","51","0","10/24/20 21:45:30","The main experiment item","yes","Sternbergtask.osexp","C:\Users\solom\Desktop","no","mono","no","18","no","white","no","yes","768","legacy","39","11","C:/Users/solom/Desktop/MW-subject-4(s).csv","legacy","7 9","Lentiform Loewenfeld","3.3.3","0","n","0","right","right","right","right","NA","539","4483","52448","539","NA","2","legacy","2","1024","2","48000","-16","experiment","4","even","1","379250","131552","375836","377034","3112","136037","377038","344686","3123","381257","381799","378045","55573","381257","NA","Sternberg task","45","36966","52","yes","1024"
"84.9056603774","84.9056603774","706.849056604","706.849056604","black","experiment","legacy","legacy","legacy","0","uniform","0","undefined","0","right","52","0","52","52","0","0","52","52","0","52","52","52","0","52","0","10/24/20 21:45:30","The main experiment item","yes","Sternbergtask.osexp","C:\Users\solom\Desktop","no","mono","no","18","no","white","no","yes","768","legacy","40","11","C:/Users/solom/Desktop/MW-subject-4(s).csv","legacy","6 2 9 3 8 4","Lentiform Loewenfeld","3.3.3","0","n","0","left","right","right","left","NA","497","4483","52448","497","NA","2","legacy","6","1024","2","48000","-16","experiment","4","even","1","385236","131552","381822","383022","3112","136037","383026","344686","3123","387243","387743","384031","55573","387243","NA","Sternberg task","45","37463","53","yes","1024"
"85.1851851852","85.1851851852","709.703703704","709.703703704","black","experiment","legacy","legacy","legacy","0","uniform","1","undefined","1","left","53","0","53","53","0","0","53","53","0","53","53","53","0","53","0","10/24/20 21:45:30","The main experiment item","yes","Sternbergtask.osexp","C:\Users\solom\Desktop","no","mono","no","18","no","white","no","yes","768","legacy","41","11","C:/Users/solom/Desktop/MW-subject-4(s).csv","legacy","9 6 2 4 1","Lentiform Loewenfeld","3.3.3","4","y","0","left","right","right","left","NA","861","4483","52448","861","NA","2","legacy","5","1024","2","48000","-16","experiment","4","even","4","391183","131552","381822","388968","3112","136037","388972","387766","3123","393190","394054","389977","55573","393189","NA","Sternberg task","46","38324","54","yes","1024"
"85.4545454545","85.4545454545","710.018181818","710.018181818","black","experiment","legacy","legacy","legacy","0","uniform","1","undefined","1","left","54","0","54","54","0","0","54","54","0","54","54","54","0","54","0","10/24/20 21:45:30","The main experiment item","yes","Sternbergtask.osexp","C:\Users\solom\Desktop","no","mono","no","18","no","white","no","yes","768","legacy","42","11","C:/Users/solom/Desktop/MW-subject-4(s).csv","legacy","8 9 5 7 1 6","Lentiform Loewenfeld","3.3.3","4","y","0","left","right","right","left","NA","727","4483","52448","727","NA","2","legacy","6","1024","2","48000","-16","experiment","4","even","7","397502","131552","394084","395286","3112","136037","395291","387766","3123","399509","400239","396297","55573","399509","NA","Sternberg task","47","39051","55","yes","1024"
"85.7142857143","85.7142857143","710.482142857","710.482142857","black","experiment","legacy","legacy","legacy","0","uniform","1","undefined","1","right","55","0","55","55","0","0","55","55","0","55","55","55","0","55","0","10/24/20 21:45:30","The main experiment item","yes","Sternbergtask.osexp","C:\Users\solom\Desktop","no","mono","no","18","no","white","no","yes","768","legacy","43","11","C:/Users/solom/Desktop/MW-subject-4(s).csv","legacy","8 5 7 3 6","Lentiform Loewenfeld","3.3.3","0","n","0","right","right","right","right","NA","736","4483","52448","736","NA","2","legacy","5","1024","2","48000","-16","experiment","4","even","9","403678","131552","400262","401463","3112","136037","401467","387766","3123","405684","406422","402472","55573","405684","NA","Sternberg task","48","39787","56","yes","1024"
"85.9649122807","85.9649122807","707.473684211","707.473684211","black","experiment","legacy","legacy","legacy","0","uniform","1","undefined","1","right","56","0","56","56","0","0","56","56","0","56","56","56","0","56","0","10/24/20 21:45:30","The main experiment item","yes","Sternbergtask.osexp","C:\Users\solom\Desktop","no","mono","no","18","no","white","no","yes","768","legacy","44","11","C:/Users/solom/Desktop/MW-subject-4(s).csv","legacy","5 2","Lentiform Loewenfeld","3.3.3","0","n","0","right","right","right","right","NA","539","4483","52448","539","NA","2","legacy","2","1024","2","48000","-16","experiment","4","even","7","409868","131552","406454","407653","3112","136037","407658","387766","3123","411873","412414","408663","55573","411872","NA","Sternberg task","49","40326","57","yes","1024"
"86.2068965517","86.2068965517","707.344827586","707.344827586","black","experiment","legacy","legacy","legacy","0","uniform","1","undefined","1","right","57","0","57","57","0","0","57","57","0","57","57","57","0","57","0","10/24/20 21:45:30","The main experiment item","yes","Sternbergtask.osexp","C:\Users\solom\Desktop","no","mono","no","18","no","white","no","yes","768","legacy","45","11","C:/Users/solom/Desktop/MW-subject-4(s).csv","legacy","2 8 6 3 1","Lentiform Loewenfeld","3.3.3","0","n","0","right","right","right","right","NA","700","4483","52448","700","NA","2","legacy","5","1024","2","48000","-16","experiment","4","even","7","415857","131552","412439","413641","3112","136037","413645","387766","3123","417863","418566","414650","55573","417862","NA","Sternberg task","50","41026","58","yes","1024"
"86.4406779661","86.4406779661","702.593220339","702.593220339","black","experiment","legacy","legacy","legacy","0","uniform","1","undefined","1","left","58","0","58","58","0","0","58","58","0","58","58","58","0","58","0","10/24/20 21:45:30","The main experiment item","yes","Sternbergtask.osexp","C:\Users\solom\Desktop","no","mono","no","18","no","white","no","yes","768","legacy","46","11","C:/Users/solom/Desktop/MW-subject-4(s).csv","legacy","4 1 5","Lentiform Loewenfeld","3.3.3","2","y","0","left","right","right","left","NA","427","4483","52448","427","NA","2","legacy","3","1024","2","48000","-16","experiment","4","even","1","422004","131552","418591","419791","3112","136037","419795","387766","3123","424009","424439","420800","55573","424009","NA","Sternberg task","51","41453","59","yes","1024"
"86.6666666667","86.6666666667","700.566666667","700.566666667","black","experiment","legacy","legacy","legacy","0","uniform","1","undefined","1","left","59","0","59","59","0","0","59","59","0","59","59","59","0","59","0","10/24/20 21:45:30","The main experiment item","yes","Sternbergtask.osexp","C:\Users\solom\Desktop","no","mono","no","18","no","white","no","yes","768","legacy","47","11","C:/Users/solom/Desktop/MW-subject-4(s).csv","legacy","7 8 6 3 1","Lentiform Loewenfeld","3.3.3","5","y","0","left","right","right","left","NA","581","4483","52448","581","NA","2","legacy","5","1024","2","48000","-16","experiment","4","even","1","427880","131552","424469","425666","3112","136037","425670","387766","3123","429887","430470","426674","55573","429886","NA","Sternberg task","52","42034","60","yes","1024"
"86.8852459016","86.8852459016","698.131147541","698.131147541","black","experiment","legacy","legacy","legacy","0","uniform","1","undefined","1","right","60","0","60","60","0","0","60","60","0","60","60","60","0","60","0","10/24/20 21:45:30","The main experiment item","yes","Sternbergtask.osexp","C:\Users\solom\Desktop","no","mono","no","18","no","white","no","yes","768","legacy","48","11","C:/Users/solom/Desktop/MW-subject-4(s).csv","legacy","6 9 5","Lentiform Loewenfeld","3.3.3","0","n","0","right","right","right","right","NA","552","4483","52448","552","NA","2","legacy","3","1024","2","48000","-16","experiment","4","even","8","433919","131552","430503","431704","3112","136037","431708","387766","3123","435924","436479","432713","55573","435924","NA","Sternberg task","53","42586","61","yes","1024"
"87.0967741935","87.0967741935","693.048387097","693.048387097","black","experiment","legacy","legacy","legacy","0","uniform","1","undefined","1","left","61","0","61","61","0","0","61","61","0","61","61","61","0","61","0","10/24/20 21:45:30","The main experiment item","yes","Sternbergtask.osexp","C:\Users\solom\Desktop","no","mono","no","18","no","white","no","yes","768","legacy","49","11","C:/Users/solom/Desktop/MW-subject-4(s).csv","legacy","4","Lentiform Loewenfeld","3.3.3","1","y","0","left","right","right","left","NA","383","4483","52448","383","NA","2","legacy","1","1024","2","48000","-16","experiment","4","even","4","439920","131552","436506","437706","3112","136037","437711","387766","3123","441925","442311","438715","55573","441924","NA","Sternberg task","54","42969","62","yes","1024"
"87.3015873016","87.3015873016","693.492063492","693.492063492","black","experiment","legacy","legacy","legacy","0","uniform","1","undefined","1","right","62","0","62","62","0","0","62","62","0","62","62","62","0","62","0","10/24/20 21:45:30","The main experiment item","yes","Sternbergtask.osexp","C:\Users\solom\Desktop","no","mono","no","18","no","white","no","yes","768","legacy","50","11","C:/Users/solom/Desktop/MW-subject-4(s).csv","legacy","2 7 5","Lentiform Loewenfeld","3.3.3","0","n","0","right","right","right","right","NA","721","4483","52448","721","NA","2","legacy","3","1024","2","48000","-16","experiment","4","even","8","445756","131552","442342","443542","3112","136037","443547","387766","3123","447763","448487","444551","55573","447763","NA","Sternberg task","55","43690","63","yes","1024"
"87.5","87.5","699.09375","699.09375","black","experiment","legacy","legacy","legacy","0","uniform","1","undefined","1","right","63","0","63","63","0","0","63","63","0","63","63","63","0","63","0","10/24/20 21:45:30","The main experiment item","yes","Sternbergtask.osexp","C:\Users\solom\Desktop","no","mono","no","18","no","white","no","yes","768","legacy","51","11","C:/Users/solom/Desktop/MW-subject-4(s).csv","legacy","5 9 2 3","Lentiform Loewenfeld","3.3.3","0","n","0","right","right","right","right","NA","1052","4483","52448","1052","NA","2","legacy","4","1024","2","48000","-16","experiment","4","even","8","451924","131552","448508","449708","3112","136037","449712","387766","3123","453928","454983","450717","55573","453928","NA","Sternberg task","56","44742","64","yes","1024"
"87.6923076923","87.6923076923","699.338461538","699.338461538","black","experiment","legacy","legacy","legacy","0","uniform","1","undefined","1","left","64","0","64","64","0","0","64","64","0","64","64","64","0","64","0","10/24/20 21:45:30","The main experiment item","yes","Sternbergtask.osexp","C:\Users\solom\Desktop","no","mono","no","18","no","white","no","yes","768","legacy","52","11","C:/Users/solom/Desktop/MW-subject-4(s).csv","legacy","1 4 9 3 2 5","Lentiform Loewenfeld","3.3.3","3","y","0","left","right","right","left","NA","715","4483","52448","715","NA","2","legacy","6","1024","2","48000","-16","experiment","4","even","9","458428","131552","455012","456213","3112","136037","456217","387766","3123","460433","461151","457222","55573","460433","NA","Sternberg task","57","45457","65","yes","1024"
"87.8787878788","87.8787878788","701.515151515","701.515151515","black","experiment","legacy","legacy","legacy","0","uniform","1","undefined","1","right","65","0","65","65","0","0","65","65","0","65","65","65","0","65","0","10/24/20 21:45:30","The main experiment item","yes","Sternbergtask.osexp","C:\Users\solom\Desktop","no","mono","no","18","no","white","no","yes","768","legacy","53","11","C:/Users/solom/Desktop/MW-subject-4(s).csv","legacy","1 7 5 2 9","Lentiform Loewenfeld","3.3.3","0","n","0","right","right","right","right","NA","843","4483","52448","843","NA","2","legacy","5","1024","2","48000","-16","experiment","4","even","3","464594","131552","461181","462378","3112","136037","462382","387766","3123","466601","467447","463388","55573","466600","NA","Sternberg task","58","46300","66","yes","1024"
"88.0597014925","88.0597014925","700.582089552","700.582089552","black","experiment","legacy","legacy","legacy","0","uniform","1","undefined","1","left","66","0","66","66","0","0","66","66","0","66","66","66","0","66","0","10/24/20 21:45:30","The main experiment item","yes","Sternbergtask.osexp","C:\Users\solom\Desktop","no","mono","no","18","no","white","no","yes","768","legacy","54","11","C:/Users/solom/Desktop/MW-subject-4(s).csv","legacy","2 8 5 1","Lentiform Loewenfeld","3.3.3","4","y","0","left","right","right","left","NA","639","4483","52448","639","NA","2","legacy","4","1024","2","48000","-16","experiment","4","even","1","470889","131552","467475","468675","3112","136037","468679","387766","3123","472893","473535","469684","55573","472893","NA","Sternberg task","59","46939","67","yes","1024"
"88.2352941176","88.2352941176","702.235294118","702.235294118","black","experiment","legacy","legacy","legacy","0","uniform","1","undefined","1","left","67","0","67","67","0","0","67","67","0","67","67","67","0","67","0","10/24/20 21:45:30","The main experiment item","yes","Sternbergtask.osexp","C:\Users\solom\Desktop","no","mono","no","18","no","white","no","yes","768","legacy","55","11","C:/Users/solom/Desktop/MW-subject-4(s).csv","legacy","8 1 6","Lentiform Loewenfeld","3.3.3","3","y","0","left","right","right","left","NA","813","4483","52448","813","NA","2","legacy","3","1024","2","48000","-16","experiment","4","even","6","476977","131552","473559","474761","3112","136037","474765","387766","3123","478983","479799","475770","55573","478983","NA","Sternberg task","60","47752","68","yes","1024"
"88.4057971014","88.4057971014","701.652173913","701.652173913","black","experiment","legacy","legacy","legacy","0","uniform","1","undefined","1","right","68","0","68","68","0","0","68","68","0","68","68","68","0","68","0","10/24/20 21:45:30","The main experiment item","yes","Sternbergtask.osexp","C:\Users\solom\Desktop","no","mono","no","18","no","white","no","yes","768","legacy","56","11","C:/Users/solom/Desktop/MW-subject-4(s).csv","legacy","1 4 9 3","Lentiform Loewenfeld","3.3.3","0","n","0","right","right","right","right","NA","662","4483","52448","662","NA","2","legacy","4","1024","2","48000","-16","experiment","4","even","5","483239","131552","479826","481026","3112","136037","481030","387766","3123","485246","485911","482034","55573","485245","NA","Sternberg task","61","48414","69","yes","1024"
"88.5714285714","88.5714285714","699.642857143","699.642857143","black","experiment","legacy","legacy","legacy","0","uniform","1","undefined","1","right","69","0","69","69","0","0","69","69","0","69","69","69","0","69","0","10/24/20 21:45:30","The main experiment item","yes","Sternbergtask.osexp","C:\Users\solom\Desktop","no","mono","no","18","no","white","no","yes","768","legacy","57","11","C:/Users/solom/Desktop/MW-subject-4(s).csv","legacy","9","Lentiform Loewenfeld","3.3.3","0","n","0","right","right","right","right","NA","561","4483","52448","561","NA","2","legacy","1","1024","2","48000","-16","experiment","4","even","6","489350","131552","485939","487136","3112","136037","487140","387766","3123","491355","491919","488144","55573","491355","NA","Sternberg task","62","48975","70","yes","1024"
"88.7323943662","88.7323943662","696.661971831","696.661971831","black","experiment","legacy","legacy","legacy","0","uniform","1","undefined","1","left","70","0","70","70","0","0","70","70","0","70","70","70","0","70","0","10/24/20 21:45:30","The main experiment item","yes","Sternbergtask.osexp","C:\Users\solom\Desktop","no","mono","no","18","no","white","no","yes","768","legacy","58","11","C:/Users/solom/Desktop/MW-subject-4(s).csv","legacy","6 9 3 1","Lentiform Loewenfeld","3.3.3","4","y","0","left","right","right","left","NA","488","4483","52448","488","NA","2","legacy","4","1024","2","48000","-16","experiment","4","even","1","495365","131552","491949","493149","3112","136037","493153","387766","3123","497372","497864","494159","55573","497372","NA","Sternberg task","63","49463","71","yes","1024"
"88.8888888889","88.8888888889","695.458333333","695.458333333","black","experiment","legacy","legacy","legacy","0","uniform","1","undefined","1","left","71","0","71","71","0","0","71","71","0","71","71","71","0","71","0","10/24/20 21:45:30","The main experiment item","yes","Sternbergtask.osexp","C:\Users\solom\Desktop","no","mono","no","18","no","white","no","yes","768","legacy","59","11","C:/Users/solom/Desktop/MW-subject-4(s).csv","legacy","4 1 8 7 5","Lentiform Loewenfeld","3.3.3","3","y","0","left","right","right","left","NA","610","4483","52448","610","NA","2","legacy","5","1024","2","48000","-16","experiment","4","even","8","501323","131552","497909","499107","3112","136037","499112","387766","3123","503330","503943","500117","55573","503329","NA","Sternberg task","64","50073","72","yes","1024"
"89.0410958904","89.0410958904","697.931506849","697.931506849","black","experiment","legacy","legacy","legacy","0","uniform","1","undefined","1","right","72","0","72","72","0","0","72","72","0","72","72","72","0","72","0","10/24/20 21:45:30","The main experiment item","yes","Sternbergtask.osexp","C:\Users\solom\Desktop","no","mono","no","18","no","white","no","yes","768","legacy","60","11","C:/Users/solom/Desktop/MW-subject-4(s).csv","legacy","2 6 4 3 9","Lentiform Loewenfeld","3.3.3","0","n","0","right","right","right","right","NA","876","4483","52448","876","NA","2","legacy","5","1024","2","48000","-16","experiment","4","even","1","507386","131552","503969","505170","3112","136037","505174","387766","3123","509392","510271","506180","55573","509391","NA","Sternberg task","65","50949","73","yes","1024"
"89.1891891892","89.1891891892","697.067567568","697.067567568","black","experiment","legacy","legacy","legacy","0","uniform","1","undefined","1","right","73","0","73","73","0","0","73","73","0","73","73","73","0","73","0","10/24/20 21:45:30","The main experiment item","yes","Sternbergtask.osexp","C:\Users\solom\Desktop","no","mono","no","18","no","white","no","yes","768","legacy","61","11","C:/Users/solom/Desktop/MW-subject-4(s).csv","legacy","3 9 8 1 6 4","Lentiform Loewenfeld","3.3.3","0","n","0","right","right","right","right","NA","634","4483","52448","634","NA","2","legacy","6","1024","2","48000","-16","experiment","4","even","7","513710","131552","510296","511494","3112","136037","511498","387766","3123","515714","516351","512504","55573","515714","NA","Sternberg task","66","51583","74","yes","1024"
"89.3333333333","89.3333333333","698.653333333","698.653333333","black","experiment","legacy","legacy","legacy","0","uniform","1","undefined","1","right","74","0","74","74","0","0","74","74","0","74","74","74","0","74","0","10/24/20 21:45:30","The main experiment item","yes","Sternbergtask.osexp","C:\Users\solom\Desktop","no","mono","no","18","no","white","no","yes","768","legacy","62","11","C:/Users/solom/Desktop/MW-subject-4(s).csv","legacy","2 3 8 5 6 7","Lentiform Loewenfeld","3.3.3","0","n","0","right","right","right","right","NA","816","4483","52448","816","NA","2","legacy","6","1024","2","48000","-16","experiment","4","even","1","519798","131552","516381","517583","3112","136037","517587","387766","3123","521804","522623","518592","55573","521803","NA","Sternberg task","67","52399","75","yes","1024"
"89.4736842105","89.4736842105","696.407894737","696.407894737","black","experiment","legacy","legacy","legacy","0","uniform","1","undefined","1","left","75","0","75","75","0","0","75","75","0","75","75","75","0","75","0","10/24/20 21:45:30","The main experiment item","yes","Sternbergtask.osexp","C:\Users\solom\Desktop","no","mono","no","18","no","white","no","yes","768","legacy","63","11","C:/Users/solom/Desktop/MW-subject-4(s).csv","legacy","9 3 8 2 1 4","Lentiform Loewenfeld","3.3.3","3","y","0","left","right","right","left","NA","528","4483","52448","528","NA","2","legacy","6","1024","2","48000","-16","experiment","4","even","8","526063","131552","522647","523848","3112","136037","523852","387766","3123","528068","528600","524857","55573","528068","NA","Sternberg task","68","52927","76","yes","1024"
"89.6103896104","89.6103896104","696.74025974","696.74025974","black","experiment","legacy","legacy","legacy","0","uniform","1","undefined","1","left","76","0","76","76","0","0","76","76","0","76","76","76","0","76","0","10/24/20 21:45:30","The main experiment item","yes","Sternbergtask.osexp","C:\Users\solom\Desktop","no","mono","no","18","no","white","no","yes","768","legacy","64","11","C:/Users/solom/Desktop/MW-subject-4(s).csv","legacy","3 5 9 6 2 4","Lentiform Loewenfeld","3.3.3","1","y","0","left","right","right","left","NA","722","4483","52448","722","NA","2","legacy","6","1024","2","48000","-16","experiment","4","even","3","532036","131552","528626","529824","3112","136037","529828","387766","3123","534042","534767","530833","55573","534041","NA","Sternberg task","69","53649","77","yes","1024"
"89.7435897436","89.7435897436","693.935897436","693.935897436","black","experiment","legacy","legacy","legacy","0","uniform","1","undefined","1","right","77","0","77","77","0","0","77","77","0","77","77","77","0","77","0","10/24/20 21:45:30","The main experiment item","yes","Sternbergtask.osexp","C:\Users\solom\Desktop","no","mono","no","18","no","white","no","yes","768","legacy","65","11","C:/Users/solom/Desktop/MW-subject-4(s).csv","legacy","7 1","Lentiform Loewenfeld","3.3.3","0","n","0","right","right","right","right","NA","478","4483","52448","478","NA","2","legacy","2","1024","2","48000","-16","experiment","4","even","8","538209","131552","534795","535997","3112","136037","536001","387766","3123","540214","540695","537004","55573","540214","NA","Sternberg task","70","54127","78","yes","1024"
"88.6075949367","88.6075949367","691.696202532","691.696202532","black","experiment","legacy","legacy","legacy","0","uniform","0","undefined","0","left","78","0","78","78","0","0","78","78","0","78","78","78","0","78","0","10/24/20 21:45:30","The main experiment item","yes","Sternbergtask.osexp","C:\Users\solom\Desktop","no","mono","no","18","no","white","no","yes","768","legacy","66","11","C:/Users/solom/Desktop/MW-subject-4(s).csv","legacy","7 2 3","Lentiform Loewenfeld","3.3.3","3","y","0","right","right","right","right","NA","517","4483","52448","517","NA","2","legacy","3","1024","2","48000","-16","experiment","4","even","3","544136","131552","540719","541924","3112","136037","541929","387766","3123","546143","546664","542933","55573","546143","NA","Sternberg task","70","54644","79","yes","1024"
"88.75","88.75","690.55","690.55","black","experiment","legacy","legacy","legacy","0","uniform","1","undefined","1","right","79","0","79","79","0","0","79","79","0","79","79","79","0","79","0","10/24/20 21:45:30","The main experiment item","yes","Sternbergtask.osexp","C:\Users\solom\Desktop","no","mono","no","18","no","white","no","yes","768","legacy","67","11","C:/Users/solom/Desktop/MW-subject-4(s).csv","legacy","3 4 2","Lentiform Loewenfeld","3.3.3","0","n","0","right","right","right","right","NA","600","4483","52448","600","NA","2","legacy","3","1024","2","48000","-16","experiment","4","even","5","550103","131552","540719","547887","3112","136037","547891","546688","3123","552109","552712","548897","55573","552109","NA","Sternberg task","71","55244","80","yes","1024"
"88.8888888889","88.8888888889","688.358024691","688.358024691","black","experiment","legacy","legacy","legacy","0","uniform","1","undefined","1","left","80","0","80","80","0","0","80","80","0","80","80","80","0","80","0","10/24/20 21:45:30","The main experiment item","yes","Sternbergtask.osexp","C:\Users\solom\Desktop","no","mono","no","18","no","white","no","yes","768","legacy","68","11","C:/Users/solom/Desktop/MW-subject-4(s).csv","legacy","9 8 4","Lentiform Loewenfeld","3.3.3","1","y","0","left","right","right","left","NA","513","4483","52448","513","NA","2","legacy","3","1024","2","48000","-16","experiment","4","even","9","556157","131552","552743","553942","3112","136037","553946","546688","3123","558163","558679","554951","55573","558163","NA","Sternberg task","72","55757","81","yes","1024"
"89.0243902439","89.0243902439","687.402439024","687.402439024","black","experiment","legacy","legacy","legacy","0","uniform","1","undefined","1","right","81","0","81","81","0","0","81","81","0","81","81","81","0","81","0","10/24/20 21:45:30","The main experiment item","yes","Sternbergtask.osexp","C:\Users\solom\Desktop","no","mono","no","18","no","white","no","yes","768","legacy","69","11","C:/Users/solom/Desktop/MW-subject-4(s).csv","legacy","2 8 9","Lentiform Loewenfeld","3.3.3","0","n","0","right","right","right","right","NA","610","4483","52448","610","NA","2","legacy","3","1024","2","48000","-16","experiment","4","even","6","562123","131552","558710","559908","3112","136037","559912","546688","3123","564130","564744","560917","55573","564130","NA","Sternberg task","73","56367","82","yes","1024"
"89.156626506","89.156626506","687.34939759","687.34939759","black","experiment","legacy","legacy","legacy","0","uniform","1","undefined","1","right","82","0","82","82","0","0","82","82","0","82","82","82","0","82","0","10/24/20 21:45:30","The main experiment item","yes","Sternbergtask.osexp","C:\Users\solom\Desktop","no","mono","no","18","no","white","no","yes","768","legacy","70","11","C:/Users/solom/Desktop/MW-subject-4(s).csv","legacy","1 5 3 2 8","Lentiform Loewenfeld","3.3.3","0","n","0","right","right","right","right","NA","683","4483","52448","683","NA","2","legacy","5","1024","2","48000","-16","experiment","4","even","4","568186","131552","564770","565971","3112","136037","565975","546688","3123","570193","570880","566980","55573","570192","NA","Sternberg task","74","57050","83","yes","1024"
"89.2857142857","89.2857142857","686.571428571","686.571428571","black","experiment","legacy","legacy","legacy","0","uniform","1","undefined","1","right","83","0","83","83","0","0","83","83","0","83","83","83","0","83","0","10/24/20 21:45:30","The main experiment item","yes","Sternbergtask.osexp","C:\Users\solom\Desktop","no","mono","no","18","no","white","no","yes","768","legacy","71","11","C:/Users/solom/Desktop/MW-subject-4(s).csv","legacy","7 9 1 6","Lentiform Loewenfeld","3.3.3","0","n","0","right","right","right","right","NA","622","4483","52448","622","NA","2","legacy","4","1024","2","48000","-16","experiment","4","even","4","574321","131552","570907","572107","3112","136037","572111","546688","3123","576326","576951","573116","55573","576326","NA","Sternberg task","75","57672","84","yes","1024"
"89.4117647059","89.4117647059","685.188235294","685.188235294","black","experiment","legacy","legacy","legacy","0","uniform","1","undefined","1","left","84","0","84","84","0","0","84","84","0","84","84","84","0","84","0","10/24/20 21:45:30","The main experiment item","yes","Sternbergtask.osexp","C:\Users\solom\Desktop","no","mono","no","18","no","white","no","yes","768","legacy","72","11","C:/Users/solom/Desktop/MW-subject-4(s).csv","legacy","2 3","Lentiform Loewenfeld","3.3.3","1","y","0","left","right","right","left","NA","569","4483","52448","569","NA","2","legacy","2","1024","2","48000","-16","experiment","4","even","2","580397","131552","576983","578182","3112","136037","578186","546688","3123","582403","582975","579192","55573","582403","NA","Sternberg task","76","58241","85","yes","1024"
"89.5348837209","89.5348837209","684.546511628","684.546511628","black","experiment","legacy","legacy","legacy","0","uniform","1","undefined","1","right","85","0","85","85","0","0","85","85","0","85","85","85","0","85","0","10/24/20 21:45:30","The main experiment item","yes","Sternbergtask.osexp","C:\Users\solom\Desktop","no","mono","no","18","no","white","no","yes","768","legacy","73","11","C:/Users/solom/Desktop/MW-subject-4(s).csv","legacy","6 9 4 5 2","Lentiform Loewenfeld","3.3.3","0","n","0","right","right","right","right","NA","630","4483","52448","630","NA","2","legacy","5","1024","2","48000","-16","experiment","4","even","1","586416","131552","583001","584201","3112","136037","584205","546688","3123","588423","589056","585210","55573","588422","NA","Sternberg task","77","58871","86","yes","1024"
"89.6551724138","89.6551724138","684.218390805","684.218390805","black","experiment","legacy","legacy","legacy","0","uniform","1","undefined","1","right","86","0","86","86","0","0","86","86","0","86","86","86","0","86","0","10/24/20 21:45:30","The main experiment item","yes","Sternbergtask.osexp","C:\Users\solom\Desktop","no","mono","no","18","no","white","no","yes","768","legacy","74","11","C:/Users/solom/Desktop/MW-subject-4(s).csv","legacy","6 3 1 7 9 8","Lentiform Loewenfeld","3.3.3","0","n","0","right","right","right","right","NA","656","4483","52448","656","NA","2","legacy","6","1024","2","48000","-16","experiment","4","even","4","592503","131552","589086","590287","3112","136037","590291","546688","3123","594508","595167","591298","55573","594508","NA","Sternberg task","78","59527","87","yes","1024"
"89.7727272727","89.7727272727","684.352272727","684.352272727","black","experiment","legacy","legacy","legacy","0","uniform","1","undefined","1","left","87","0","87","87","0","0","87","87","0","87","87","87","0","87","0","10/24/20 21:45:30","The main experiment item","yes","Sternbergtask.osexp","C:\Users\solom\Desktop","no","mono","no","18","no","white","no","yes","768","legacy","75","11","C:/Users/solom/Desktop/MW-subject-4(s).csv","legacy","2 6 1 7 4","Lentiform Loewenfeld","3.3.3","2","y","0","left","right","right","left","NA","696","4483","52448","696","NA","2","legacy","5","1024","2","48000","-16","experiment","4","even","6","598613","131552","595196","596398","3112","136037","596402","546688","3123","600620","601320","597407","55573","600619","NA","Sternberg task","79","60223","88","yes","1024"
"89.8876404494","89.8876404494","682.876404494","682.876404494","black","experiment","legacy","legacy","legacy","0","uniform","1","undefined","1","right","88","0","88","88","0","0","88","88","0","88","88","88","0","88","0","10/24/20 21:45:30","The main experiment item","yes","Sternbergtask.osexp","C:\Users\solom\Desktop","no","mono","no","18","no","white","no","yes","768","legacy","76","11","C:/Users/solom/Desktop/MW-subject-4(s).csv","legacy","6 8","Lentiform Loewenfeld","3.3.3","0","n","0","right","right","right","right","NA","553","4483","52448","553","NA","2","legacy","2","1024","2","48000","-16","experiment","4","even","9","604759","131552","601348","602545","3112","136037","602549","546688","3123","606764","607320","603553","55573","606763","NA","Sternberg task","80","60776","89","yes","1024"
"90","90","682.788888889","682.788888889","black","experiment","legacy","legacy","legacy","0","uniform","1","undefined","1","right","89","0","89","89","0","0","89","89","0","89","89","89","0","89","0","10/24/20 21:45:30","The main experiment item","yes","Sternbergtask.osexp","C:\Users\solom\Desktop","no","mono","no","18","no","white","no","yes","768","legacy","77","11","C:/Users/solom/Desktop/MW-subject-4(s).csv","legacy","9 5 3 2 8 6","Lentiform Loewenfeld","3.3.3","0","n","0","right","right","right","right","NA","675","4483","52448","675","NA","2","legacy","6","1024","2","48000","-16","experiment","4","even","7","610763","131552","607350","608548","3112","136037","608552","546688","3123","612770","613448","609557","55573","612769","NA","Sternberg task","81","61451","90","yes","1024"
"90.1098901099","90.1098901099","685.43956044","685.43956044","black","experiment","legacy","legacy","legacy","0","uniform","1","undefined","1","left","90","0","90","90","0","0","90","90","0","90","90","90","0","90","0","10/24/20 21:45:30","The main experiment item","yes","Sternbergtask.osexp","C:\Users\solom\Desktop","no","mono","no","18","no","white","no","yes","768","legacy","78","11","C:/Users/solom/Desktop/MW-subject-4(s).csv","legacy","5 7 3 6 2","Lentiform Loewenfeld","3.3.3","5","y","0","left","right","right","left","NA","924","4483","52448","924","NA","2","legacy","5","1024","2","48000","-16","experiment","4","even","2","616891","131552","613477","614677","3112","136037","614681","546688","3123","618896","619824","615687","55573","618896","NA","Sternberg task","82","62375","91","yes","1024"
"90.2173913043","90.2173913043","684.467391304","684.467391304","black","experiment","legacy","legacy","legacy","0","uniform","1","undefined","1","left","91","0","91","91","0","0","91","91","0","91","91","91","0","91","0","10/24/20 21:45:30","The main experiment item","yes","Sternbergtask.osexp","C:\Users\solom\Desktop","no","mono","no","18","no","white","no","yes","768","legacy","79","11","C:/Users/solom/Desktop/MW-subject-4(s).csv","legacy","9 1 7 2","Lentiform Loewenfeld","3.3.3","2","y","0","left","right","right","left","NA","596","4483","52448","596","NA","2","legacy","4","1024","2","48000","-16","experiment","4","even","1","623267","131552","619853","621052","3112","136037","621056","546688","3123","625273","625873","622061","55573","625273","NA","Sternberg task","83","62971","92","yes","1024"
"90.3225806452","90.3225806452","684.365591398","684.365591398","black","experiment","legacy","legacy","legacy","0","uniform","1","undefined","1","left","92","0","92","92","0","0","92","92","0","92","92","92","0","92","0","10/24/20 21:45:30","The main experiment item","yes","Sternbergtask.osexp","C:\Users\solom\Desktop","no","mono","no","18","no","white","no","yes","768","legacy","80","11","C:/Users/solom/Desktop/MW-subject-4(s).csv","legacy","8 9 5 6 7","Lentiform Loewenfeld","3.3.3","1","y","0","left","right","right","left","NA","675","4483","52448","675","NA","2","legacy","5","1024","2","48000","-16","experiment","4","even","8","629309","131552","625896","627095","3112","136037","627100","546688","3123","631314","631993","628104","55573","631314","NA","Sternberg task","84","63646","93","yes","1024"
"90.4255319149","90.4255319149","684.936170213","684.936170213","black","experiment","legacy","legacy","legacy","0","uniform","1","undefined","1","right","93","0","93","93","0","0","93","93","0","93","93","93","0","93","0","10/24/20 21:45:30","The main experiment item","yes","Sternbergtask.osexp","C:\Users\solom\Desktop","no","mono","no","18","no","white","no","yes","768","legacy","81","11","C:/Users/solom/Desktop/MW-subject-4(s).csv","legacy","2 8 9 4 1","Lentiform Loewenfeld","3.3.3","0","n","0","right","right","right","right","NA","738","4483","52448","738","NA","2","legacy","5","1024","2","48000","-16","experiment","4","even","5","635430","131552","632014","633215","3112","136037","633219","546688","3123","637435","638176","634224","55573","637434","NA","Sternberg task","85","64384","94","yes","1024"
"89.4736842105","89.4736842105","684.284210526","684.284210526","black","experiment","legacy","legacy","legacy","0","uniform","0","undefined","0","left","94","0","94","94","0","0","94","94","0","94","94","94","0","94","0","10/24/20 21:45:30","The main experiment item","yes","Sternbergtask.osexp","C:\Users\solom\Desktop","no","mono","no","18","no","white","no","yes","768","legacy","82","11","C:/Users/solom/Desktop/MW-subject-4(s).csv","legacy","6 7 8 5","Lentiform Loewenfeld","3.3.3","3","y","0","right","right","right","right","NA","623","4483","52448","623","NA","2","legacy","4","1024","2","48000","-16","experiment","4","even","8","641624","131552","638211","639408","3112","136037","639412","546688","3123","643629","644256","640419","55573","643629","NA","Sternberg task","85","65007","95","yes","1024"
"89.5833333333","89.5833333333","682.5625","682.5625","black","experiment","legacy","legacy","legacy","0","uniform","1","undefined","1","right","95","0","95","95","0","0","95","95","0","95","95","95","0","95","0","10/24/20 21:45:30","The main experiment item","yes","Sternbergtask.osexp","C:\Users\solom\Desktop","no","mono","no","18","no","white","no","yes","768","legacy","83","11","C:/Users/solom/Desktop/MW-subject-4(s).csv","legacy","1","Lentiform Loewenfeld","3.3.3","0","n","0","right","right","right","right","NA","519","4483","52448","519","NA","2","legacy","1","1024","2","48000","-16","experiment","4","even","7","647694","131552","638211","645481","3112","136037","645485","644286","3123","649701","650224","646490","55573","649700","NA","Sternberg task","86","65526","96","yes","1024"
"89.6907216495","89.6907216495","682.381443299","682.381443299","black","experiment","legacy","legacy","legacy","0","uniform","1","undefined","1","right","96","0","96","96","0","0","96","96","0","96","96","96","0","96","0","10/24/20 21:45:30","The main experiment item","yes","Sternbergtask.osexp","C:\Users\solom\Desktop","no","mono","no","18","no","white","no","yes","768","legacy","84","11","C:/Users/solom/Desktop/MW-subject-4(s).csv","legacy","3 4 9 6 7 8","Lentiform Loewenfeld","3.3.3","0","n","0","right","right","right","right","NA","665","4483","52448","665","NA","2","legacy","6","1024","2","48000","-16","experiment","4","even","2","653669","131552","650255","651453","3112","136037","651457","644286","3123","655675","656344","652463","55573","655674","NA","Sternberg task","87","66191","97","yes","1024"
"89.7959183673","89.7959183673","681.408163265","681.408163265","black","experiment","legacy","legacy","legacy","0","uniform","1","undefined","1","left","97","0","97","97","0","0","97","97","0","97","97","97","0","97","0","10/24/20 21:45:30","The main experiment item","yes","Sternbergtask.osexp","C:\Users\solom\Desktop","no","mono","no","18","no","white","no","yes","768","legacy","85","11","C:/Users/solom/Desktop/MW-subject-4(s).csv","legacy","2 4 6 9","Lentiform Loewenfeld","3.3.3","3","y","0","left","right","right","left","NA","587","4483","52448","587","NA","2","legacy","4","1024","2","48000","-16","experiment","4","even","6","659786","131552","656373","657571","3112","136037","657575","644286","3123","661793","662384","658581","55573","661792","NA","Sternberg task","88","66778","98","yes","1024"
"89.898989899","89.898989899","680.858585859","680.858585859","black","experiment","legacy","legacy","legacy","0","uniform","1","undefined","1","right","98","0","98","98","0","0","98","98","0","98","98","98","0","98","0","10/24/20 21:45:30","The main experiment item","yes","Sternbergtask.osexp","C:\Users\solom\Desktop","no","mono","no","18","no","white","no","yes","768","legacy","86","11","C:/Users/solom/Desktop/MW-subject-4(s).csv","legacy","5 3 8 7 2 4","Lentiform Loewenfeld","3.3.3","0","n","0","right","right","right","right","NA","627","4483","52448","627","NA","2","legacy","6","1024","2","48000","-16","experiment","4","even","9","665828","131552","662408","663613","3112","136037","663617","644286","3123","667833","668464","664622","55573","667833","NA","Sternberg task","89","67405","99","yes","1024"
"90","90","679.68","679.68","black","experiment","legacy","legacy","legacy","0","uniform","1","undefined","1","right","99","0","99","99","0","0","99","99","0","99","99","99","0","99","0","10/24/20 21:45:30","The main experiment item","yes","Sternbergtask.osexp","C:\Users\solom\Desktop","no","mono","no","18","no","white","no","yes","768","legacy","87","11","C:/Users/solom/Desktop/MW-subject-4(s).csv","legacy","6 9 7 3 8 2","Lentiform Loewenfeld","3.3.3","0","n","0","right","right","right","right","NA","563","4483","52448","563","NA","2","legacy","6","1024","2","48000","-16","experiment","4","even","5","671907","131552","668494","669691","3112","136037","669695","644286","3123","673913","674480","670701","55573","673913","NA","Sternberg task","90","67968","100","yes","1024"
"90.099009901","90.099009901","678.475247525","678.475247525","black","experiment","legacy","legacy","legacy","0","uniform","1","undefined","1","left","100","0","100","100","0","0","100","100","0","100","100","100","0","100","0","10/24/20 21:45:30","The main experiment item","yes","Sternbergtask.osexp","C:\Users\solom\Desktop","no","mono","no","18","no","white","no","yes","768","legacy","88","11","C:/Users/solom/Desktop/MW-subject-4(s).csv","legacy","7 1 8 5 6 2","Lentiform Loewenfeld","3.3.3","2","y","0","left","right","right","left","NA","558","4483","52448","558","NA","2","legacy","6","1024","2","48000","-16","experiment","4","even","1","677927","131552","674512","675712","3112","136037","675716","644286","3123","679934","680496","676722","55573","679933","NA","Sternberg task","91","68526","101","yes","1024"
"90.1960784314","90.1960784314","676.431372549","676.431372549","black","experiment","legacy","legacy","legacy","0","uniform","1","undefined","1","right","101","0","101","101","0","0","101","101","0","101","101","101","0","101","0","10/24/20 21:45:30","The main experiment item","yes","Sternbergtask.osexp","C:\Users\solom\Desktop","no","mono","no","18","no","white","no","yes","768","legacy","89","11","C:/Users/solom/Desktop/MW-subject-4(s).csv","legacy","4 1","Lentiform Loewenfeld","3.3.3","0","n","0","right","right","right","right","NA","470","4483","52448","470","NA","2","legacy","2","1024","2","48000","-16","experiment","4","even","6","683936","131552","680523","681720","3112","136037","681724","644286","3123","685942","686416","682729","55573","685942","NA","Sternberg task","92","68996","102","yes","1024"
"90.2912621359","90.2912621359","677.582524272","677.582524272","black","experiment","legacy","legacy","legacy","0","uniform","1","undefined","1","left","102","0","102","102","0","0","102","102","0","102","102","102","0","102","0","10/24/20 21:45:30","The main experiment item","yes","Sternbergtask.osexp","C:\Users\solom\Desktop","no","mono","no","18","no","white","no","yes","768","legacy","90","11","C:/Users/solom/Desktop/MW-subject-4(s).csv","legacy","8 5 3 7 4 6","Lentiform Loewenfeld","3.3.3","6","y","0","left","right","right","left","NA","795","4483","52448","795","NA","2","legacy","6","1024","2","48000","-16","experiment","4","even","6","689860","131552","686449","687647","3112","136037","687651","644286","3123","691865","692664","688654","55573","691865","NA","Sternberg task","93","69791","103","yes","1024"
"90.3846153846","90.3846153846","676.942307692","676.942307692","black","experiment","legacy","legacy","legacy","0","uniform","1","undefined","1","left","103","0","103","103","0","0","103","103","0","103","103","103","0","103","0","10/24/20 21:45:30","The main experiment item","yes","Sternbergtask.osexp","C:\Users\solom\Desktop","no","mono","no","18","no","white","no","yes","768","legacy","91","11","C:/Users/solom/Desktop/MW-subject-4(s).csv","legacy","9 5 3 8 4","Lentiform Loewenfeld","3.3.3","1","y","0","left","right","right","left","NA","611","4483","52448","611","NA","2","legacy","5","1024","2","48000","-16","experiment","4","even","9","696107","131552","692693","693891","3112","136037","693895","644286","3123","698113","698729","694902","55573","698113","NA","Sternberg task","94","70402","104","yes","1024"
"90.4761904762","90.4761904762","677.4","677.4","black","experiment","legacy","legacy","legacy","0","uniform","1","undefined","1","right","104","0","104","104","0","0","104","104","0","104","104","104","0","104","0","10/24/20 21:45:30","The main experiment item","yes","Sternbergtask.osexp","C:\Users\solom\Desktop","no","mono","no","18","no","white","no","yes","768","legacy","92","11","C:/Users/solom/Desktop/MW-subject-4(s).csv","legacy","1 7 5 2","Lentiform Loewenfeld","3.3.3","0","n","0","right","right","right","right","NA","725","4483","52448","725","NA","2","legacy","4","1024","2","48000","-16","experiment","4","even","3","702170","131552","698753","699955","3112","136037","699959","644286","3123","704175","704904","700964","55573","704175","NA","Sternberg task","95","71127","105","yes","1024"
"90.5660377358","90.5660377358","675.858490566","675.858490566","black","experiment","legacy","legacy","legacy","0","uniform","1","undefined","1","left","105","0","105","105","0","0","105","105","0","105","105","105","0","105","0","10/24/20 21:45:30","The main experiment item","yes","Sternbergtask.osexp","C:\Users\solom\Desktop","no","mono","no","18","no","white","no","yes","768","legacy","93","11","C:/Users/solom/Desktop/MW-subject-4(s).csv","legacy","3 4","Lentiform Loewenfeld","3.3.3","1","y","0","left","right","right","left","NA","514","4483","52448","514","NA","2","legacy","2","1024","2","48000","-16","experiment","4","even","3","708348","131552","704930","706134","3112","136037","706138","644286","3123","710354","710872","707143","55573","710354","NA","Sternberg task","96","71641","106","yes","1024"
"90.6542056075","90.6542056075","676.018691589","676.018691589","black","experiment","legacy","legacy","legacy","0","uniform","1","undefined","1","left","106","0","106","106","0","0","106","106","0","106","106","106","0","106","0","10/24/20 21:45:30","The main experiment item","yes","Sternbergtask.osexp","C:\Users\solom\Desktop","no","mono","no","18","no","white","no","yes","768","legacy","94","11","C:/Users/solom/Desktop/MW-subject-4(s).csv","legacy","6 8 9 3 4 9","Lentiform Loewenfeld","3.3.3","5","y","0","left","right","right","left","NA","693","4483","52448","693","NA","2","legacy","6","1024","2","48000","-16","experiment","4","even","4","714315","131552","710899","712100","3112","136037","712105","644286","3123","716319","717016","713110","55573","716318","NA","Sternberg task","97","72334","107","yes","1024"
"90.7407407407","90.7407407407","675.62037037","675.62037037","black","experiment","legacy","legacy","legacy","0","uniform","1","undefined","1","left","107","0","107","107","0","0","107","107","0","107","107","107","0","107","0","10/24/20 21:45:30","The main experiment item","yes","Sternbergtask.osexp","C:\Users\solom\Desktop","no","mono","no","18","no","white","no","yes","768","legacy","95","11","C:/Users/solom/Desktop/MW-subject-4(s).csv","legacy","4 6 5 8","Lentiform Loewenfeld","3.3.3","1","y","0","left","right","right","left","NA","633","4483","52448","633","NA","2","legacy","4","1024","2","48000","-16","experiment","4","even","4","720476","131552","717059","718261","3112","136037","718265","644286","3123","722483","723120","719270","55573","722483","NA","Sternberg task","98","72967","108","yes","1024"
"90.8256880734","90.8256880734","674.71559633","674.71559633","black","experiment","legacy","legacy","legacy","0","uniform","1","undefined","1","right","108","0","108","108","0","0","108","108","0","108","108","108","0","108","0","10/24/20 21:45:30","The main experiment item","yes","Sternbergtask.osexp","C:\Users\solom\Desktop","no","mono","no","18","no","white","no","yes","768","legacy","96","11","C:/Users/solom/Desktop/MW-subject-4(s).csv","legacy","6 8 4","Lentiform Loewenfeld","3.3.3","0","n","0","right","right","right","right","NA","577","4483","52448","577","NA","2","legacy","3","1024","2","48000","-16","experiment","4","even","1","726556","131552","723142","724341","3112","136037","724345","644286","3123","728563","729145","725350","55573","728563","NA","Sternberg task","99","73544","109","yes","1024"
"90.9090909091","90.9090909091","673.036363636","673.036363636","black","experiment","legacy","legacy","legacy","0","uniform","1","undefined","1","right","109","0","109","109","0","0","109","109","0","109","109","109","0","109","0","10/24/20 21:45:30","The main experiment item","yes","Sternbergtask.osexp","C:\Users\solom\Desktop","no","mono","no","18","no","white","no","yes","768","legacy","97","11","C:/Users/solom/Desktop/MW-subject-4(s).csv","legacy","9 8 2 7 4","Lentiform Loewenfeld","3.3.3","0","n","0","right","right","right","right","NA","490","4483","52448","490","NA","2","legacy","5","1024","2","48000","-16","experiment","4","even","5","732582","131552","729169","730366","3112","136037","730370","644286","3123","734586","735080","731376","55573","734586","NA","Sternberg task","100","74034","110","yes","1024"
"90.990990991","90.990990991","672.540540541","672.540540541","black","experiment","legacy","legacy","legacy","0","uniform","1","undefined","1","left","110","0","110","110","0","0","110","110","0","110","110","110","0","110","0","10/24/20 21:45:30","The main experiment item","yes","Sternbergtask.osexp","C:\Users\solom\Desktop","no","mono","no","18","no","white","no","yes","768","legacy","98","11","C:/Users/solom/Desktop/MW-subject-4(s).csv","legacy","5 2 6","Lentiform Loewenfeld","3.3.3","2","y","0","left","right","right","left","NA","618","4483","52448","618","NA","2","legacy","3","1024","2","48000","-16","experiment","4","even","2","738515","131552","735105","736300","3112","136037","736304","644286","3123","740522","741144","737309","55573","740521","NA","Sternberg task","101","74652","111","yes","1024"
"91.0714285714","91.0714285714","673.133928571","673.133928571","black","experiment","legacy","legacy","legacy","0","uniform","1","undefined","1","right","111","0","111","111","0","0","111","111","0","111","111","111","0","111","0","10/24/20 21:45:30","The main experiment item","yes","Sternbergtask.osexp","C:\Users\solom\Desktop","no","mono","no","18","no","white","no","yes","768","legacy","99","11","C:/Users/solom/Desktop/MW-subject-4(s).csv","legacy","8 5 4 2 9 6","Lentiform Loewenfeld","3.3.3","0","n","0","right","right","right","right","NA","739","4483","52448","739","NA","2","legacy","6","1024","2","48000","-16","experiment","4","even","3","744587","131552","741175","742371","3112","136037","742375","644286","3123","746593","747336","743381","55573","746593","NA","Sternberg task","102","75391","112","yes","1024"
"91.1504424779","91.1504424779","674.513274336","674.513274336","black","experiment","legacy","legacy","legacy","0","uniform","1","undefined","1","right","112","0","112","112","0","0","112","112","0","112","112","112","0","112","0","10/24/20 21:45:30","The main experiment item","yes","Sternbergtask.osexp","C:\Users\solom\Desktop","no","mono","no","18","no","white","no","yes","768","legacy","100","11","C:/Users/solom/Desktop/MW-subject-4(s).csv","legacy","7 1 5 6 3","Lentiform Loewenfeld","3.3.3","0","n","0","right","right","right","right","NA","829","4483","52448","829","NA","2","legacy","5","1024","2","48000","-16","experiment","4","even","8","750776","131552","747357","748561","3112","136037","748565","644286","3123","752783","753616","749570","55573","752783","NA","Sternberg task","103","76220","113","yes","1024"
"91.2280701754","91.2280701754","673.833333333","673.833333333","black","experiment","legacy","legacy","legacy","0","uniform","1","undefined","1","left","113","0","113","113","0","0","113","113","0","113","113","113","0","113","0","10/24/20 21:45:30","The main experiment item","yes","Sternbergtask.osexp","C:\Users\solom\Desktop","no","mono","no","18","no","white","no","yes","768","legacy","101","11","C:/Users/solom/Desktop/MW-subject-4(s).csv","legacy","2 5 4 8 7","Lentiform Loewenfeld","3.3.3","3","y","0","left","right","right","left","NA","597","4483","52448","597","NA","2","legacy","5","1024","2","48000","-16","experiment","4","even","4","757058","131552","753644","754843","3112","136037","754847","644286","3123","759064","759665","755852","55573","759064","NA","Sternberg task","104","76817","114","yes","1024"
"91.3043478261","91.3043478261","673.782608696","673.782608696","black","experiment","legacy","legacy","legacy","0","uniform","1","undefined","1","left","114","0","114","114","0","0","114","114","0","114","114","114","0","114","0","10/24/20 21:45:30","The main experiment item","yes","Sternbergtask.osexp","C:\Users\solom\Desktop","no","mono","no","18","no","white","no","yes","768","legacy","102","11","C:/Users/solom/Desktop/MW-subject-4(s).csv","legacy","5 7 8 2 3 8","Lentiform Loewenfeld","3.3.3","5","y","0","left","right","right","left","NA","668","4483","52448","668","NA","2","legacy","6","1024","2","48000","-16","experiment","4","even","3","763113","131552","759697","760898","3112","136037","760902","644286","3123","765120","765793","761907","55573","765119","NA","Sternberg task","105","77485","115","yes","1024"
"91.3793103448","91.3793103448","673.310344828","673.310344828","black","experiment","legacy","legacy","legacy","0","uniform","1","undefined","1","left","115","0","115","115","0","0","115","115","0","115","115","115","0","115","0","10/24/20 21:45:30","The main experiment item","yes","Sternbergtask.osexp","C:\Users\solom\Desktop","no","mono","no","18","no","white","no","yes","768","legacy","103","11","C:/Users/solom/Desktop/MW-subject-4(s).csv","legacy","8 5 4 7 3 1","Lentiform Loewenfeld","3.3.3","2","y","0","left","right","right","left","NA","619","4483","52448","619","NA","2","legacy","6","1024","2","48000","-16","experiment","4","even","5","769228","131552","765813","767013","3112","136037","767017","644286","3123","771233","771857","768023","55573","771232","NA","Sternberg task","106","78104","116","yes","1024"
"91.452991453","91.452991453","672.803418803","672.803418803","black","experiment","legacy","legacy","legacy","0","uniform","1","undefined","1","right","116","0","116","116","0","0","116","116","0","116","116","116","0","116","0","10/24/20 21:45:30","The main experiment item","yes","Sternbergtask.osexp","C:\Users\solom\Desktop","no","mono","no","18","no","white","no","yes","768","legacy","104","11","C:/Users/solom/Desktop/MW-subject-4(s).csv","legacy","6 7 5 9","Lentiform Loewenfeld","3.3.3","0","n","0","right","right","right","right","NA","614","4483","52448","614","NA","2","legacy","4","1024","2","48000","-16","experiment","4","even","2","775297","131552","771882","773080","3112","136037","773085","644286","3123","777303","777921","774090","55573","777303","NA","Sternberg task","107","78718","117","yes","1024"
"90.6779661017","90.6779661017","675.830508475","675.830508475","black","experiment","legacy","legacy","legacy","0","uniform","0","undefined","0","right","117","0","117","117","0","0","117","117","0","117","117","117","0","117","0","10/24/20 21:45:30","The main experiment item","yes","Sternbergtask.osexp","C:\Users\solom\Desktop","no","mono","no","18","no","white","no","yes","768","legacy","105","11","C:/Users/solom/Desktop/MW-subject-4(s).csv","legacy","1 4 3 6 5","Lentiform Loewenfeld","3.3.3","0","n","0","left","right","right","left","NA","1030","4483","52448","1030","NA","2","legacy","5","1024","2","48000","-16","experiment","4","even","8","781408","131552","778001","779193","3112","136037","779197","644286","3123","783415","784449","780202","55573","783414","NA","Sternberg task","107","79748","118","yes","1024"
"90.756302521","90.756302521","676.806722689","676.806722689","black","experiment","legacy","legacy","legacy","0","uniform","1","undefined","1","left","118","0","118","118","0","0","118","118","0","118","118","118","0","118","0","10/24/20 21:45:30","The main experiment item","yes","Sternbergtask.osexp","C:\Users\solom\Desktop","no","mono","no","18","no","white","no","yes","768","legacy","106","11","C:/Users/solom/Desktop/MW-subject-4(s).csv","legacy","8 5 1 3 9","Lentiform Loewenfeld","3.3.3","4","y","0","left","right","right","left","NA","792","4483","52448","792","NA","2","legacy","5","1024","2","48000","-16","experiment","4","even","3","787895","131552","778001","785679","3112","136037","785683","784480","3123","789901","790697","786688","55573","789900","NA","Sternberg task","108","80540","119","yes","1024"
"90.8333333333","90.8333333333","677.341666667","677.341666667","black","experiment","legacy","legacy","legacy","0","uniform","1","undefined","1","right","119","0","119","119","0","0","119","119","0","119","119","119","0","119","0","10/24/20 21:45:30","The main experiment item","yes","Sternbergtask.osexp","C:\Users\solom\Desktop","no","mono","no","18","no","white","no","yes","768","legacy","107","11","C:/Users/solom/Desktop/MW-subject-4(s).csv","legacy","7 8 6 1","Lentiform Loewenfeld","3.3.3","0","n","0","right","right","right","right","NA","741","4483","52448","741","NA","2","legacy","4","1024","2","48000","-16","experiment","4","even","3","794138","131552","790723","791922","3112","136037","791926","784480","3123","796144","796889","792933","55573","796144","NA","Sternberg task","109","81281","120","yes","1024"
"90.0826446281","90.0826446281","677.809917355","677.809917355","black","experiment","legacy","legacy","legacy","0","uniform","0","undefined","0","left","120","0","120","120","0","0","120","120","0","120","120","120","0","120","0","10/24/20 21:45:30","The main experiment item","yes","Sternbergtask.osexp","C:\Users\solom\Desktop","no","mono","no","18","no","white","no","yes","768","legacy","108","11","C:/Users/solom/Desktop/MW-subject-4(s).csv","legacy","3 4 9 6 2 9","Lentiform Loewenfeld","3.3.3","5","y","0","right","right","right","right","NA","734","4483","52448","734","NA","2","legacy","6","1024","2","48000","-16","experiment","4","even","2","800328","131552","796917","798114","3112","136037","798118","784480","3123","802334","803073","799123","55573","802334","NA","Sternberg task","109","82015","121","yes","1024"
