"acc","accuracy","average_response_time","avg_rt","background","block","canvas_backend","clock_backend","color_backend","compensation","coordinates","correct","correct_instructions1","correct_keyboard_response","correct_response","count_ISI","count_IncorrectFeedback","count_PracticeLoop","count_correctFeedback","count_expSequence","count_experiment","count_experimentloop","count_fixation","count_instructions1","count_instructions2","count_keyboard_response","count_logger","count_memorySet","count_probe","count_thankyou","datetime","description","disable_garbage_collection","experiment_file","experiment_path","font_bold","font_family","font_italic","font_size","font_underline","foreground","form_clicks","fullscreen","height","keyboard_backend","live_row","live_row_PracticeLoop","logfile","mouse_backend","numberSet","opensesame_codename","opensesame_version","posInSet","present","psychopy_waitblanking","repeat_cycle","response","response_instructions1","response_instructions2","response_keyboard_response","response_thankyou","response_time","response_time_instructions1","response_time_instructions2","response_time_keyboard_response","response_time_thankyou","round_decimals","sampler_backend","setSize","sound_buf_size","sound_channels","sound_freq","sound_sample_size","start","subject_nr","subject_parity","target","time_ISI","time_IncorrectFeedback","time_PracticeLoop","time_correctFeedback","time_expSequence","time_experiment","time_experimentloop","time_fixation","time_instructions1","time_instructions2","time_keyboard_response","time_logger","time_memorySet","time_probe","time_thankyou","title","total_correct","total_response_time","total_responses","uniform_coordinates","width"
"100","100","666","666","black","practice","legacy","legacy","legacy","0","uniform","1","undefined","1","right","0","0","0","0","0","0","0","0","0","0","0","0","0","0","0","Mon Oct 12 12:55:14 2020","The main experiment item","yes","SternbergTask.osexp","C:\Users\Owner","no","mono","no","18","no","white","no","yes","768","legacy","0","0","C:/Users/Owner/SMPsubject-2.csv","legacy","9 6 7 4 5","Lentiform Loewenfeld","3.3.3","0","n","yes","0","right","right","NA","right","NA","666","1546","NA","666","NA","2","legacy","5","1024","2","48000","-16","experiment","2","even","3","7844","NA","4467","NA","5634","2917","NA","5636","2920","NA","9849","10516","6640","9849","NA","Sternberg Task ","1","666","1","yes","1024"
"100","100","568.5","568.5","black","practice","legacy","legacy","legacy","0","uniform","1","undefined","1","left","1","1","0","1","1","0","0","1","0","0","1","1","1","1","0","Mon Oct 12 12:55:14 2020","The main experiment item","yes","SternbergTask.osexp","C:\Users\Owner","no","mono","no","18","no","white","no","yes","768","legacy","1","1","C:/Users/Owner/SMPsubject-2.csv","legacy","4 8","Lentiform Loewenfeld","3.3.3","1","y","yes","0","left","right","NA","left","NA","471","1546","NA","471","NA","2","legacy","2","1024","2","48000","-16","experiment","2","even","4","13871","NA","4467","10545","11661","2917","NA","11662","2920","NA","15875","16347","12666","15875","NA","Sternberg Task ","2","1137","2","yes","1024"
"100","100","631.3333333333334","631.3333333333334","black","practice","legacy","legacy","legacy","0","uniform","1","undefined","1","right","2","2","0","2","2","0","0","2","0","0","2","2","2","2","0","Mon Oct 12 12:55:14 2020","The main experiment item","yes","SternbergTask.osexp","C:\Users\Owner","no","mono","no","18","no","white","no","yes","768","legacy","2","2","C:/Users/Owner/SMPsubject-2.csv","legacy","5 7 8 4 1 2","Lentiform Loewenfeld","3.3.3","0","n","yes","0","right","right","NA","right","NA","757","1546","NA","757","NA","2","legacy","6","1024","2","48000","-16","experiment","2","even","6","19658","NA","4467","16350","17448","2917","NA","17450","2920","NA","21662","22421","18454","21662","NA","Sternberg Task ","3","1894","3","yes","1024"
"100","100","642","642","black","practice","legacy","legacy","legacy","0","uniform","1","undefined","1","right","3","3","0","3","3","0","0","3","0","0","3","3","3","3","0","Mon Oct 12 12:55:14 2020","The main experiment item","yes","SternbergTask.osexp","C:\Users\Owner","no","mono","no","18","no","white","no","yes","768","legacy","3","3","C:/Users/Owner/SMPsubject-2.csv","legacy","4 1 5","Lentiform Loewenfeld","3.3.3","0","n","yes","0","right","right","NA","right","NA","674","1546","NA","674","NA","2","legacy","3","1024","2","48000","-16","experiment","2","even","2","25695","NA","4467","22424","23485","2917","NA","23487","2920","NA","27696","28372","24491","27696","NA","Sternberg Task ","4","2568","4","yes","1024"
"100","100","665.4","665.4","black","practice","legacy","legacy","legacy","0","uniform","1","undefined","1","right","4","4","0","4","4","0","0","4","0","0","4","4","4","4","0","Mon Oct 12 12:55:14 2020","The main experiment item","yes","SternbergTask.osexp","C:\Users\Owner","no","mono","no","18","no","white","no","yes","768","legacy","4","4","C:/Users/Owner/SMPsubject-2.csv","legacy","5","Lentiform Loewenfeld","3.3.3","0","n","yes","0","right","right","NA","right","NA","759","1546","NA","759","NA","2","legacy","1","1024","2","48000","-16","experiment","2","even","3","31662","NA","4467","28375","29455","2917","NA","29456","2920","NA","33667","34427","30459","33667","NA","Sternberg Task ","5","3327","5","yes","1024"
"100","100","683","683","black","practice","legacy","legacy","legacy","0","uniform","1","undefined","1","left","5","5","0","5","5","0","0","5","0","0","5","5","5","5","0","Mon Oct 12 12:55:14 2020","The main experiment item","yes","SternbergTask.osexp","C:\Users\Owner","no","mono","no","18","no","white","no","yes","768","legacy","5","5","C:/Users/Owner/SMPsubject-2.csv","legacy","1 7 9 8 5","Lentiform Loewenfeld","3.3.3","4","y","yes","0","left","right","NA","left","NA","771","1546","NA","771","NA","2","legacy","5","1024","2","48000","-16","experiment","2","even","8","37697","NA","4467","34431","35493","2917","NA","35494","2920","NA","39701","40473","36495","39701","NA","Sternberg Task ","6","4098","6","yes","1024"
"100","100","697","697","black","practice","legacy","legacy","legacy","0","uniform","1","undefined","1","right","6","6","0","6","6","0","0","6","0","0","6","6","6","6","0","Mon Oct 12 12:55:14 2020","The main experiment item","yes","SternbergTask.osexp","C:\Users\Owner","no","mono","no","18","no","white","no","yes","768","legacy","6","6","C:/Users/Owner/SMPsubject-2.csv","legacy","2 1","Lentiform Loewenfeld","3.3.3","0","n","yes","0","right","right","NA","right","NA","781","1546","NA","781","NA","2","legacy","2","1024","2","48000","-16","experiment","2","even","5","43747","NA","4467","40476","41540","2917","NA","41541","2920","NA","45748","46532","42542","45748","NA","Sternberg Task ","7","4879","7","yes","1024"
"100","100","669.375","669.375","black","practice","legacy","legacy","legacy","0","uniform","1","undefined","1","left","7","7","0","7","7","0","0","7","0","0","7","7","7","7","0","Mon Oct 12 12:55:14 2020","The main experiment item","yes","SternbergTask.osexp","C:\Users\Owner","no","mono","no","18","no","white","no","yes","768","legacy","7","7","C:/Users/Owner/SMPsubject-2.csv","legacy","6","Lentiform Loewenfeld","3.3.3","1","y","yes","0","left","right","NA","left","NA","476","1546","NA","476","NA","2","legacy","1","1024","2","48000","-16","experiment","2","even","6","49806","NA","4467","46536","47599","2917","NA","47601","2920","NA","51810","52287","48602","51810","NA","Sternberg Task ","8","5355","8","yes","1024"
"100","100","703.6666666666666","703.6666666666666","black","practice","legacy","legacy","legacy","0","uniform","1","undefined","1","left","8","8","0","8","8","0","0","8","0","0","8","8","8","8","0","Mon Oct 12 12:55:14 2020","The main experiment item","yes","SternbergTask.osexp","C:\Users\Owner","no","mono","no","18","no","white","no","yes","768","legacy","8","8","C:/Users/Owner/SMPsubject-2.csv","legacy","2 9 4","Lentiform Loewenfeld","3.3.3","3","y","yes","0","left","right","NA","left","NA","978","1546","NA","978","NA","2","legacy","3","1024","2","48000","-16","experiment","2","even","4","55606","NA","4467","52290","53399","2917","NA","53400","2920","NA","57607","58586","54404","57607","NA","Sternberg Task ","9","6333","9","yes","1024"
"100","100","694.5","694.5","black","practice","legacy","legacy","legacy","0","uniform","1","undefined","1","left","9","9","0","9","9","0","0","9","0","0","9","9","9","9","0","Mon Oct 12 12:55:14 2020","The main experiment item","yes","SternbergTask.osexp","C:\Users\Owner","no","mono","no","18","no","white","no","yes","768","legacy","9","9","C:/Users/Owner/SMPsubject-2.csv","legacy","4 3 1 7 9 8","Lentiform Loewenfeld","3.3.3","1","y","yes","0","left","right","NA","left","NA","612","1546","NA","612","NA","2","legacy","6","1024","2","48000","-16","experiment","2","even","4","61950","NA","4467","58597","59740","2917","NA","59742","2920","NA","63954","64567","60746","63954","NA","Sternberg Task ","10","6945","10","yes","1024"
"100","100","691","691","black","practice","legacy","legacy","legacy","0","uniform","1","undefined","1","right","10","10","0","10","10","0","0","10","0","0","10","10","10","10","0","Mon Oct 12 12:55:14 2020","The main experiment item","yes","SternbergTask.osexp","C:\Users\Owner","no","mono","no","18","no","white","no","yes","768","legacy","10","10","C:/Users/Owner/SMPsubject-2.csv","legacy","3 1 9 4","Lentiform Loewenfeld","3.3.3","0","n","yes","0","right","right","NA","right","NA","656","1546","NA","656","NA","2","legacy","4","1024","2","48000","-16","experiment","2","even","6","67891","NA","4467","64571","65682","2917","NA","65683","2920","NA","69895","70553","66687","69895","NA","Sternberg Task ","11","7601","11","yes","1024"
"100","100","699.25","699.25","black","practice","legacy","legacy","legacy","0","uniform","1","undefined","1","left","11","11","0","11","11","0","0","11","0","0","11","11","11","11","0","Mon Oct 12 12:55:14 2020","The main experiment item","yes","SternbergTask.osexp","C:\Users\Owner","no","mono","no","18","no","white","no","yes","768","legacy","11","11","C:/Users/Owner/SMPsubject-2.csv","legacy","1 5 2 9","Lentiform Loewenfeld","3.3.3","2","y","yes","0","left","right","NA","left","NA","790","1546","NA","790","NA","2","legacy","4","1024","2","48000","-16","experiment","2","even","5","73826","NA","4467","70556","71617","2917","NA","71618","2920","NA","75828","76619","72622","75828","NA","Sternberg Task ","12","8391","12","yes","1024"
"100","100","691.6153846153846","691.6153846153846","black","experiment","legacy","legacy","legacy","0","uniform","1","undefined","1","left","12","12","0","12","12","0","0","12","0","0","12","12","12","12","0","Mon Oct 12 12:55:14 2020","The main experiment item","yes","SternbergTask.osexp","C:\Users\Owner","no","mono","no","18","no","white","no","yes","768","legacy","0","11","C:/Users/Owner/SMPsubject-2.csv","legacy","6 7 9 3 1 2","Lentiform Loewenfeld","3.3.3","1","y","yes","0","left","right","right","left","NA","600","1546","10295","600","NA","2","legacy","6","1024","2","48000","-16","experiment","2","even","6","90250","NA","4467","76622","88041","2917","87973","88042","2920","77677","92254","92855","89046","92254","NA","Sternberg Task ","13","8991","13","yes","1024"
"100","100","692.3571428571429","692.3571428571429","black","experiment","legacy","legacy","legacy","0","uniform","1","undefined","1","left","13","13","0","13","13","0","0","13","0","0","13","13","13","13","0","Mon Oct 12 12:55:14 2020","The main experiment item","yes","SternbergTask.osexp","C:\Users\Owner","no","mono","no","18","no","white","no","yes","768","legacy","1","11","C:/Users/Owner/SMPsubject-2.csv","legacy","6 9 3 1","Lentiform Loewenfeld","3.3.3","4","y","yes","0","left","right","right","left","NA","702","1546","10295","702","NA","2","legacy","4","1024","2","48000","-16","experiment","2","even","1","96178","NA","4467","92858","93969","2917","87973","93970","2920","77677","98181","98884","94974","98181","NA","Sternberg Task ","14","9693","14","yes","1024"
"100","100","705","705","black","experiment","legacy","legacy","legacy","0","uniform","1","undefined","1","right","14","14","0","14","14","0","0","14","0","0","14","14","14","14","0","Mon Oct 12 12:55:14 2020","The main experiment item","yes","SternbergTask.osexp","C:\Users\Owner","no","mono","no","18","no","white","no","yes","768","legacy","2","11","C:/Users/Owner/SMPsubject-2.csv","legacy","9 7 4 5 8","Lentiform Loewenfeld","3.3.3","0","n","yes","0","right","right","right","right","NA","882","1546","10295","882","NA","2","legacy","5","1024","2","48000","-16","experiment","2","even","6","102237","NA","4467","98890","100030","2917","87973","100031","2920","77677","104241","105124","101036","104241","NA","Sternberg Task ","15","10575","15","yes","1024"
"100","100","698.4375","698.4375","black","experiment","legacy","legacy","legacy","0","uniform","1","undefined","1","left","15","15","0","15","15","0","0","15","0","0","15","15","15","15","0","Mon Oct 12 12:55:14 2020","The main experiment item","yes","SternbergTask.osexp","C:\Users\Owner","no","mono","no","18","no","white","no","yes","768","legacy","3","11","C:/Users/Owner/SMPsubject-2.csv","legacy","2 4 8 5 1 3","Lentiform Loewenfeld","3.3.3","1","y","yes","0","left","right","right","left","NA","600","1546","10295","600","NA","2","legacy","6","1024","2","48000","-16","experiment","2","even","2","108443","NA","4467","105128","106233","2917","87973","106235","2920","77677","110448","111049","107239","110447","NA","Sternberg Task ","16","11175","16","yes","1024"
"100","100","693.8823529411765","693.8823529411765","black","experiment","legacy","legacy","legacy","0","uniform","1","undefined","1","right","16","16","0","16","16","0","0","16","0","0","16","16","16","16","0","Mon Oct 12 12:55:14 2020","The main experiment item","yes","SternbergTask.osexp","C:\Users\Owner","no","mono","no","18","no","white","no","yes","768","legacy","4","11","C:/Users/Owner/SMPsubject-2.csv","legacy","6 2 9 3 8 4","Lentiform Loewenfeld","3.3.3","0","n","yes","0","right","right","right","right","NA","621","1546","10295","621","NA","2","legacy","6","1024","2","48000","-16","experiment","2","even","1","114319","NA","4467","111052","112112","2917","87973","112114","2920","77677","116323","116944","113115","116323","NA","Sternberg Task ","17","11796","17","yes","1024"
"100","100","696.1111111111111","696.1111111111111","black","experiment","legacy","legacy","legacy","0","uniform","1","undefined","1","left","17","17","0","17","17","0","0","17","0","0","17","17","17","17","0","Mon Oct 12 12:55:14 2020","The main experiment item","yes","SternbergTask.osexp","C:\Users\Owner","no","mono","no","18","no","white","no","yes","768","legacy","5","11","C:/Users/Owner/SMPsubject-2.csv","legacy","4 6 2 5 1","Lentiform Loewenfeld","3.3.3","5","y","yes","0","left","right","right","left","NA","734","1546","10295","734","NA","2","legacy","5","1024","2","48000","-16","experiment","2","even","1","120271","NA","4467","116948","118062","2917","87973","118063","2920","77677","122275","123010","119067","122275","NA","Sternberg Task ","18","12530","18","yes","1024"
"100","100","701.578947368421","701.578947368421","black","experiment","legacy","legacy","legacy","0","uniform","1","undefined","1","left","18","18","0","18","18","0","0","18","0","0","18","18","18","18","0","Mon Oct 12 12:55:14 2020","The main experiment item","yes","SternbergTask.osexp","C:\Users\Owner","no","mono","no","18","no","white","no","yes","768","legacy","6","11","C:/Users/Owner/SMPsubject-2.csv","legacy","7 8 4 6 9 5","Lentiform Loewenfeld","3.3.3","4","y","yes","0","left","right","right","left","NA","800","1546","10295","800","NA","2","legacy","6","1024","2","48000","-16","experiment","2","even","6","126284","NA","4467","123014","124076","2917","87973","124077","2920","77677","128290","129091","125080","128289","NA","Sternberg Task ","19","13330","19","yes","1024"
"100","100","701.45","701.45","black","experiment","legacy","legacy","legacy","0","uniform","1","undefined","1","left","19","19","0","19","19","0","0","19","0","0","19","19","19","19","0","Mon Oct 12 12:55:14 2020","The main experiment item","yes","SternbergTask.osexp","C:\Users\Owner","no","mono","no","18","no","white","no","yes","768","legacy","7","11","C:/Users/Owner/SMPsubject-2.csv","legacy","9 1 7 2","Lentiform Loewenfeld","3.3.3","2","y","yes","0","left","right","right","left","NA","699","1546","10295","699","NA","2","legacy","4","1024","2","48000","-16","experiment","2","even","1","132417","NA","4467","129094","130206","2917","87973","130208","2920","77677","134421","135121","131212","134421","NA","Sternberg Task ","20","14029","20","yes","1024"
"100","100","702.6190476190476","702.6190476190476","black","experiment","legacy","legacy","legacy","0","uniform","1","undefined","1","right","20","20","0","20","20","0","0","20","0","0","20","20","20","20","0","Mon Oct 12 12:55:14 2020","The main experiment item","yes","SternbergTask.osexp","C:\Users\Owner","no","mono","no","18","no","white","no","yes","768","legacy","8","11","C:/Users/Owner/SMPsubject-2.csv","legacy","6 9 4 5 3 2","Lentiform Loewenfeld","3.3.3","0","n","yes","0","right","right","right","right","NA","726","1546","10295","726","NA","2","legacy","6","1024","2","48000","-16","experiment","2","even","8","138443","NA","4467","135124","136234","2917","87973","136235","2920","77677","140447","141174","137239","140447","NA","Sternberg Task ","21","14755","21","yes","1024"
"100","100","732.6818181818181","732.6818181818181","black","experiment","legacy","legacy","legacy","0","uniform","1","undefined","1","left","21","21","0","21","21","0","0","21","0","0","21","21","21","21","0","Mon Oct 12 12:55:14 2020","The main experiment item","yes","SternbergTask.osexp","C:\Users\Owner","no","mono","no","18","no","white","no","yes","768","legacy","9","11","C:/Users/Owner/SMPsubject-2.csv","legacy","3 9 7 6 4","Lentiform Loewenfeld","3.3.3","3","y","yes","0","left","right","right","left","NA","1364","1546","10295","1364","NA","2","legacy","5","1024","2","48000","-16","experiment","2","even","7","144494","NA","4467","141178","142285","2917","87973","142286","2920","77677","146497","147862","143290","146497","NA","Sternberg Task ","22","16119","22","yes","1024"
"100","100","738.6521739130435","738.6521739130435","black","experiment","legacy","legacy","legacy","0","uniform","1","undefined","1","left","22","22","0","22","22","0","0","22","0","0","22","22","22","22","0","Mon Oct 12 12:55:14 2020","The main experiment item","yes","SternbergTask.osexp","C:\Users\Owner","no","mono","no","18","no","white","no","yes","768","legacy","10","11","C:/Users/Owner/SMPsubject-2.csv","legacy","3 4 9 6 2 9","Lentiform Loewenfeld","3.3.3","5","y","yes","0","left","right","right","left","NA","870","1546","10295","870","NA","2","legacy","6","1024","2","48000","-16","experiment","2","even","2","151180","NA","4467","147865","148970","2917","87973","148972","2920","77677","153184","154055","149976","153184","NA","Sternberg Task ","23","16989","23","yes","1024"
"100","100","734.125","734.125","black","experiment","legacy","legacy","legacy","0","uniform","1","undefined","1","left","23","23","0","23","23","0","0","23","0","0","23","23","23","23","0","Mon Oct 12 12:55:14 2020","The main experiment item","yes","SternbergTask.osexp","C:\Users\Owner","no","mono","no","18","no","white","no","yes","768","legacy","11","11","C:/Users/Owner/SMPsubject-2.csv","legacy","8 3","Lentiform Loewenfeld","3.3.3","2","y","yes","0","left","right","right","left","NA","630","1546","10295","630","NA","2","legacy","2","1024","2","48000","-16","experiment","2","even","3","157379","NA","4467","154058","155169","2917","87973","155171","2920","77677","159383","160014","156175","159383","NA","Sternberg Task ","24","17619","24","yes","1024"
"100","100","738.88","738.88","black","experiment","legacy","legacy","legacy","0","uniform","1","undefined","1","left","24","24","0","24","24","0","0","24","0","0","24","24","24","24","0","Mon Oct 12 12:55:14 2020","The main experiment item","yes","SternbergTask.osexp","C:\Users\Owner","no","mono","no","18","no","white","no","yes","768","legacy","12","11","C:/Users/Owner/SMPsubject-2.csv","legacy","8 9 6 1","Lentiform Loewenfeld","3.3.3","2","y","yes","0","left","right","right","left","NA","853","1546","10295","853","NA","2","legacy","4","1024","2","48000","-16","experiment","2","even","9","163344","NA","4467","160018","161135","2917","87973","161136","2920","77677","165348","166202","162140","165348","NA","Sternberg Task ","25","18472","25","yes","1024"
"100","100","745.3461538461538","745.3461538461538","black","experiment","legacy","legacy","legacy","0","uniform","1","undefined","1","left","25","25","0","25","25","0","0","25","0","0","25","25","25","25","0","Mon Oct 12 12:55:14 2020","The main experiment item","yes","SternbergTask.osexp","C:\Users\Owner","no","mono","no","18","no","white","no","yes","768","legacy","13","11","C:/Users/Owner/SMPsubject-2.csv","legacy","3 2 1 4 7","Lentiform Loewenfeld","3.3.3","2","y","yes","0","left","right","right","left","NA","907","1546","10295","907","NA","2","legacy","5","1024","2","48000","-16","experiment","2","even","2","169528","NA","4467","166206","167318","2917","87973","167320","2920","77677","171533","172442","168324","171532","NA","Sternberg Task ","26","19379","26","yes","1024"
"100","100","745.4444444444445","745.4444444444445","black","experiment","legacy","legacy","legacy","0","uniform","1","undefined","1","right","26","26","0","26","26","0","0","26","0","0","26","26","26","26","0","Mon Oct 12 12:55:14 2020","The main experiment item","yes","SternbergTask.osexp","C:\Users\Owner","no","mono","no","18","no","white","no","yes","768","legacy","14","11","C:/Users/Owner/SMPsubject-2.csv","legacy","6 9 4 5 2","Lentiform Loewenfeld","3.3.3","0","n","yes","0","right","right","right","right","NA","748","1546","10295","748","NA","2","legacy","5","1024","2","48000","-16","experiment","2","even","1","175754","NA","4467","172445","173547","2917","87973","173549","2920","77677","177758","178507","174552","177758","NA","Sternberg Task ","27","20127","27","yes","1024"
"100","100","741.3928571428571","741.3928571428571","black","experiment","legacy","legacy","legacy","0","uniform","1","undefined","1","right","27","27","0","27","27","0","0","27","0","0","27","27","27","27","0","Mon Oct 12 12:55:14 2020","The main experiment item","yes","SternbergTask.osexp","C:\Users\Owner","no","mono","no","18","no","white","no","yes","768","legacy","15","11","C:/Users/Owner/SMPsubject-2.csv","legacy","9","Lentiform Loewenfeld","3.3.3","0","n","yes","0","right","right","right","right","NA","632","1546","10295","632","NA","2","legacy","1","1024","2","48000","-16","experiment","2","even","6","181819","NA","4467","178510","179609","2917","87973","179611","2920","77677","183820","184454","180615","183820","NA","Sternberg Task ","28","20759","28","yes","1024"
"100","100","750.9310344827586","750.9310344827586","black","experiment","legacy","legacy","legacy","0","uniform","1","undefined","1","left","28","28","0","28","28","0","0","28","0","0","28","28","28","28","0","Mon Oct 12 12:55:14 2020","The main experiment item","yes","SternbergTask.osexp","C:\Users\Owner","no","mono","no","18","no","white","no","yes","768","legacy","16","11","C:/Users/Owner/SMPsubject-2.csv","legacy","7 1 8 5 6 2","Lentiform Loewenfeld","3.3.3","2","y","yes","0","left","right","right","left","NA","1018","1546","10295","1018","NA","2","legacy","6","1024","2","48000","-16","experiment","2","even","1","187771","NA","4467","184457","185565","2917","87973","185566","2920","77677","189773","190792","186569","189773","NA","Sternberg Task ","29","21777","29","yes","1024"
"100","100","749.3333333333334","749.3333333333334","black","experiment","legacy","legacy","legacy","0","uniform","1","undefined","1","left","29","29","0","29","29","0","0","29","0","0","29","29","29","29","0","Mon Oct 12 12:55:14 2020","The main experiment item","yes","SternbergTask.osexp","C:\Users\Owner","no","mono","no","18","no","white","no","yes","768","legacy","17","11","C:/Users/Owner/SMPsubject-2.csv","legacy","7 1 3","Lentiform Loewenfeld","3.3.3","2","y","yes","0","left","right","right","left","NA","703","1546","10295","703","NA","2","legacy","3","1024","2","48000","-16","experiment","2","even","1","194109","NA","4467","190796","191900","2917","87973","191901","2920","77677","196113","196818","192905","196113","NA","Sternberg Task ","30","22480","30","yes","1024"
"100","100","751.7741935483871","751.7741935483871","black","experiment","legacy","legacy","legacy","0","uniform","1","undefined","1","right","30","30","0","30","30","0","0","30","0","0","30","30","30","30","0","Mon Oct 12 12:55:14 2020","The main experiment item","yes","SternbergTask.osexp","C:\Users\Owner","no","mono","no","18","no","white","no","yes","768","legacy","18","11","C:/Users/Owner/SMPsubject-2.csv","legacy","1 4 9 3","Lentiform Loewenfeld","3.3.3","0","n","yes","0","right","right","right","right","NA","825","1546","10295","825","NA","2","legacy","4","1024","2","48000","-16","experiment","2","even","5","200109","NA","4467","196821","197901","2917","87973","197904","2920","77677","202110","202937","198905","202110","NA","Sternberg Task ","31","23305","31","yes","1024"
"100","100","754","754","black","experiment","legacy","legacy","legacy","0","uniform","1","undefined","1","right","31","31","0","31","31","0","0","31","0","0","31","31","31","31","0","Mon Oct 12 12:55:14 2020","The main experiment item","yes","SternbergTask.osexp","C:\Users\Owner","no","mono","no","18","no","white","no","yes","768","legacy","19","11","C:/Users/Owner/SMPsubject-2.csv","legacy","1 5 3 2 8","Lentiform Loewenfeld","3.3.3","0","n","yes","0","right","right","right","right","NA","823","1546","10295","823","NA","2","legacy","5","1024","2","48000","-16","experiment","2","even","4","206258","NA","4467","202940","204049","2917","87973","204050","2920","77677","208262","209086","205054","208262","NA","Sternberg Task ","32","24128","32","yes","1024"
"100","100","759.3636363636364","759.3636363636364","black","experiment","legacy","legacy","legacy","0","uniform","1","undefined","1","left","32","32","0","32","32","0","0","32","0","0","32","32","32","32","0","Mon Oct 12 12:55:14 2020","The main experiment item","yes","SternbergTask.osexp","C:\Users\Owner","no","mono","no","18","no","white","no","yes","768","legacy","20","11","C:/Users/Owner/SMPsubject-2.csv","legacy","4 3 2 5 8","Lentiform Loewenfeld","3.3.3","2","y","yes","0","left","right","right","left","NA","931","1546","10295","931","NA","2","legacy","5","1024","2","48000","-16","experiment","2","even","3","212411","NA","4467","209089","210202","2917","87973","210203","2920","77677","214413","215344","211207","214413","NA","Sternberg Task ","33","25059","33","yes","1024"
"100","100","768.9117647058823","768.9117647058823","black","experiment","legacy","legacy","legacy","0","uniform","1","undefined","1","right","33","33","0","33","33","0","0","33","0","0","33","33","33","33","0","Mon Oct 12 12:55:14 2020","The main experiment item","yes","SternbergTask.osexp","C:\Users\Owner","no","mono","no","18","no","white","no","yes","768","legacy","21","11","C:/Users/Owner/SMPsubject-2.csv","legacy","2 8 9","Lentiform Loewenfeld","3.3.3","0","n","yes","0","right","right","right","right","NA","1084","1546","10295","1084","NA","2","legacy","3","1024","2","48000","-16","experiment","2","even","6","218676","NA","4467","215348","216466","2917","87973","216468","2920","77677","220680","221765","217472","220680","NA","Sternberg Task ","34","26143","34","yes","1024"
"100","100","778","778","black","experiment","legacy","legacy","legacy","0","uniform","1","undefined","1","right","34","34","0","34","34","0","0","34","0","0","34","34","34","34","0","Mon Oct 12 12:55:14 2020","The main experiment item","yes","SternbergTask.osexp","C:\Users\Owner","no","mono","no","18","no","white","no","yes","768","legacy","22","11","C:/Users/Owner/SMPsubject-2.csv","legacy","1 7 8 3 9","Lentiform Loewenfeld","3.3.3","0","n","yes","0","right","right","right","right","NA","1087","1546","10295","1087","NA","2","legacy","5","1024","2","48000","-16","experiment","2","even","2","225059","NA","4467","221769","222852","2917","87973","222854","2920","77677","227060","228149","223855","227060","NA","Sternberg Task ","35","27230","35","yes","1024"
"100","100","775.4166666666666","775.4166666666666","black","experiment","legacy","legacy","legacy","0","uniform","1","undefined","1","left","35","35","0","35","35","0","0","35","0","0","35","35","35","35","0","Mon Oct 12 12:55:14 2020","The main experiment item","yes","SternbergTask.osexp","C:\Users\Owner","no","mono","no","18","no","white","no","yes","768","legacy","23","11","C:/Users/Owner/SMPsubject-2.csv","legacy","2 3","Lentiform Loewenfeld","3.3.3","1","y","yes","0","left","right","right","left","NA","685","1546","10295","685","NA","2","legacy","2","1024","2","48000","-16","experiment","2","even","2","231469","NA","4467","228152","229260","2917","87973","229261","2920","77677","233473","234159","230265","233473","NA","Sternberg Task ","36","27915","36","yes","1024"
"100","100","779.7027027027027","779.7027027027027","black","experiment","legacy","legacy","legacy","0","uniform","1","undefined","1","right","36","36","0","36","36","0","0","36","0","0","36","36","36","36","0","Mon Oct 12 12:55:14 2020","The main experiment item","yes","SternbergTask.osexp","C:\Users\Owner","no","mono","no","18","no","white","no","yes","768","legacy","24","11","C:/Users/Owner/SMPsubject-2.csv","legacy","8 5 4 2 9 6","Lentiform Loewenfeld","3.3.3","0","n","yes","0","right","right","right","right","NA","934","1546","10295","934","NA","2","legacy","6","1024","2","48000","-16","experiment","2","even","3","237468","NA","4467","234162","235261","2917","87973","235263","2920","77677","239472","240407","236267","239472","NA","Sternberg Task ","37","28849","37","yes","1024"
"100","100","790.9736842105264","790.9736842105264","black","experiment","legacy","legacy","legacy","0","uniform","1","undefined","1","left","37","37","0","37","37","0","0","37","0","0","37","37","37","37","0","Mon Oct 12 12:55:14 2020","The main experiment item","yes","SternbergTask.osexp","C:\Users\Owner","no","mono","no","18","no","white","no","yes","768","legacy","25","11","C:/Users/Owner/SMPsubject-2.csv","legacy","2 6 1 7 4","Lentiform Loewenfeld","3.3.3","2","y","yes","0","left","right","right","left","NA","1208","1546","10295","1208","NA","2","legacy","5","1024","2","48000","-16","experiment","2","even","6","243738","NA","4467","240418","241530","2917","87973","241531","2920","77677","245742","246951","242535","245742","NA","Sternberg Task ","38","30057","38","yes","1024"
"100","100","791.4871794871794","791.4871794871794","black","experiment","legacy","legacy","legacy","0","uniform","1","undefined","1","left","38","38","0","38","38","0","0","38","0","0","38","38","38","38","0","Mon Oct 12 12:55:14 2020","The main experiment item","yes","SternbergTask.osexp","C:\Users\Owner","no","mono","no","18","no","white","no","yes","768","legacy","26","11","C:/Users/Owner/SMPsubject-2.csv","legacy","3 5 4 7","Lentiform Loewenfeld","3.3.3","1","y","yes","0","left","right","right","left","NA","811","1546","10295","811","NA","2","legacy","4","1024","2","48000","-16","experiment","2","even","3","250257","NA","4467","246954","248048","2917","87973","248049","2920","77677","252261","253073","249053","252261","NA","Sternberg Task ","39","30868","39","yes","1024"
"97.5","97.5","792.825","792.825","black","experiment","legacy","legacy","legacy","0","uniform","0","undefined","0","right","39","39","0","39","39","0","0","39","0","0","39","39","39","39","0","Mon Oct 12 12:55:14 2020","The main experiment item","yes","SternbergTask.osexp","C:\Users\Owner","no","mono","no","18","no","white","no","yes","768","legacy","27","11","C:/Users/Owner/SMPsubject-2.csv","legacy","8 2 1 4 5 9","Lentiform Loewenfeld","3.3.3","0","n","yes","0","left","right","right","left","NA","845","1546","10295","845","NA","2","legacy","6","1024","2","48000","-16","experiment","2","even","7","256393","NA","4467","253077","254184","2917","87973","254185","2920","77677","258397","259243","255189","258397","NA","Sternberg Task ","39","31713","40","yes","1024"
"97.5609756097561","97.5609756097561","791.390243902439","791.390243902439","black","experiment","legacy","legacy","legacy","0","uniform","1","undefined","1","right","40","40","0","40","40","0","0","40","0","0","40","40","40","40","0","Mon Oct 12 12:55:14 2020","The main experiment item","yes","SternbergTask.osexp","C:\Users\Owner","no","mono","no","18","no","white","no","yes","768","legacy","28","11","C:/Users/Owner/SMPsubject-2.csv","legacy","5 2","Lentiform Loewenfeld","3.3.3","0","n","yes","0","right","right","right","right","NA","734","1546","10295","734","NA","2","legacy","2","1024","2","48000","-16","experiment","2","even","7","262520","259248","4467","253077","260314","2917","87973","260315","2920","77677","264522","265258","261318","264522","NA","Sternberg Task ","40","32447","41","yes","1024"
"97.61904761904762","97.61904761904762","787.7857142857143","787.7857142857143","black","experiment","legacy","legacy","legacy","0","uniform","1","undefined","1","right","41","41","0","41","41","0","0","41","0","0","41","41","41","41","0","Mon Oct 12 12:55:14 2020","The main experiment item","yes","SternbergTask.osexp","C:\Users\Owner","no","mono","no","18","no","white","no","yes","768","legacy","29","11","C:/Users/Owner/SMPsubject-2.csv","legacy","2 6 4 3 9","Lentiform Loewenfeld","3.3.3","0","n","yes","0","right","right","right","right","NA","640","1546","10295","640","NA","2","legacy","5","1024","2","48000","-16","experiment","2","even","1","268584","259248","4467","265261","266375","2917","87973","266376","2920","77677","270588","271229","267380","270588","NA","Sternberg Task ","41","33087","42","yes","1024"
"97.67441860465117","97.67441860465117","789.1860465116279","789.1860465116279","black","experiment","legacy","legacy","legacy","0","uniform","1","undefined","1","left","42","42","0","42","42","0","0","42","0","0","42","42","42","42","0","Mon Oct 12 12:55:14 2020","The main experiment item","yes","SternbergTask.osexp","C:\Users\Owner","no","mono","no","18","no","white","no","yes","768","legacy","30","11","C:/Users/Owner/SMPsubject-2.csv","legacy","5 2 9 6 1 7","Lentiform Loewenfeld","3.3.3","3","y","yes","0","left","right","right","left","NA","848","1546","10295","848","NA","2","legacy","6","1024","2","48000","-16","experiment","2","even","9","274529","259248","4467","271231","272320","2917","87973","272321","2920","77677","276533","277382","273325","276533","NA","Sternberg Task ","42","33935","43","yes","1024"
"97.72727272727273","97.72727272727273","785.9318181818181","785.9318181818181","black","experiment","legacy","legacy","legacy","0","uniform","1","undefined","1","left","43","43","0","43","43","0","0","43","0","0","43","43","43","43","0","Mon Oct 12 12:55:14 2020","The main experiment item","yes","SternbergTask.osexp","C:\Users\Owner","no","mono","no","18","no","white","no","yes","768","legacy","31","11","C:/Users/Owner/SMPsubject-2.csv","legacy","9 5 8 1","Lentiform Loewenfeld","3.3.3","2","y","yes","0","left","right","right","left","NA","646","1546","10295","646","NA","2","legacy","4","1024","2","48000","-16","experiment","2","even","5","280699","259248","4467","277386","278489","2917","87973","278490","2920","77677","282703","283350","279494","282703","NA","Sternberg Task ","43","34581","44","yes","1024"
"97.77777777777777","97.77777777777777","783.1333333333333","783.1333333333333","black","experiment","legacy","legacy","legacy","0","uniform","1","undefined","1","right","44","44","0","44","44","0","0","44","0","0","44","44","44","44","0","Mon Oct 12 12:55:14 2020","The main experiment item","yes","SternbergTask.osexp","C:\Users\Owner","no","mono","no","18","no","white","no","yes","768","legacy","32","11","C:/Users/Owner/SMPsubject-2.csv","legacy","3 4 9 6 7 8","Lentiform Loewenfeld","3.3.3","0","n","yes","0","right","right","right","right","NA","660","1546","10295","660","NA","2","legacy","6","1024","2","48000","-16","experiment","2","even","2","286667","259248","4467","283352","284459","2917","87973","284460","2920","77677","288671","289331","285463","288671","NA","Sternberg Task ","44","35241","45","yes","1024"
"97.82608695652173","97.82608695652173","783.6086956521739","783.6086956521739","black","experiment","legacy","legacy","legacy","0","uniform","1","undefined","1","right","45","45","0","45","45","0","0","45","0","0","45","45","45","45","0","Mon Oct 12 12:55:14 2020","The main experiment item","yes","SternbergTask.osexp","C:\Users\Owner","no","mono","no","18","no","white","no","yes","768","legacy","33","11","C:/Users/Owner/SMPsubject-2.csv","legacy","6 3 1 7 9 8","Lentiform Loewenfeld","3.3.3","0","n","yes","0","right","right","right","right","NA","805","1546","10295","805","NA","2","legacy","6","1024","2","48000","-16","experiment","2","even","4","292634","259248","4467","289335","290425","2917","87973","290426","2920","77677","294639","295444","291430","294638","NA","Sternberg Task ","45","36046","46","yes","1024"
"97.87234042553192","97.87234042553192","781.6808510638298","781.6808510638298","black","experiment","legacy","legacy","legacy","0","uniform","1","undefined","1","left","46","46","0","46","46","0","0","46","0","0","46","46","46","46","0","Mon Oct 12 12:55:14 2020","The main experiment item","yes","SternbergTask.osexp","C:\Users\Owner","no","mono","no","18","no","white","no","yes","768","legacy","34","11","C:/Users/Owner/SMPsubject-2.csv","legacy","8 7 3","Lentiform Loewenfeld","3.3.3","1","y","yes","0","left","right","right","left","NA","693","1546","10295","693","NA","2","legacy","3","1024","2","48000","-16","experiment","2","even","8","298769","259248","4467","295448","296560","2917","87973","296561","2920","77677","300773","301467","297565","300773","NA","Sternberg Task ","46","36739","47","yes","1024"
"97.91666666666667","97.91666666666667","788.6875","788.6875","black","experiment","legacy","legacy","legacy","0","uniform","1","undefined","1","right","47","47","0","47","47","0","0","47","0","0","47","47","47","47","0","Mon Oct 12 12:55:14 2020","The main experiment item","yes","SternbergTask.osexp","C:\Users\Owner","no","mono","no","18","no","white","no","yes","768","legacy","35","11","C:/Users/Owner/SMPsubject-2.csv","legacy","2 5 1 4","Lentiform Loewenfeld","3.3.3","0","n","yes","0","right","right","right","right","NA","1118","1546","10295","1118","NA","2","legacy","4","1024","2","48000","-16","experiment","2","even","6","304785","259248","4467","301471","302575","2917","87973","302577","2920","77677","306789","307909","303581","306789","NA","Sternberg Task ","47","37857","48","yes","1024"
"97.95918367346938","97.95918367346938","790.5918367346939","790.5918367346939","black","experiment","legacy","legacy","legacy","0","uniform","1","undefined","1","right","48","48","0","48","48","0","0","48","0","0","48","48","48","48","0","Mon Oct 12 12:55:14 2020","The main experiment item","yes","SternbergTask.osexp","C:\Users\Owner","no","mono","no","18","no","white","no","yes","768","legacy","36","11","C:/Users/Owner/SMPsubject-2.csv","legacy","1 4 9 2 5","Lentiform Loewenfeld","3.3.3","0","n","yes","0","right","right","right","right","NA","882","1546","10295","882","NA","2","legacy","5","1024","2","48000","-16","experiment","2","even","7","311223","259248","4467","307911","309017","2917","87973","309018","2920","77677","313227","314111","310019","313227","NA","Sternberg Task ","48","38739","49","yes","1024"
"98","98","796.04","796.04","black","experiment","legacy","legacy","legacy","0","uniform","1","undefined","1","left","49","49","0","49","49","0","0","49","0","0","49","49","49","49","0","Mon Oct 12 12:55:14 2020","The main experiment item","yes","SternbergTask.osexp","C:\Users\Owner","no","mono","no","18","no","white","no","yes","768","legacy","37","11","C:/Users/Owner/SMPsubject-2.csv","legacy","7 6","Lentiform Loewenfeld","3.3.3","2","y","yes","0","left","right","right","left","NA","1063","1546","10295","1063","NA","2","legacy","2","1024","2","48000","-16","experiment","2","even","6","317429","259248","4467","314115","315220","2917","87973","315221","2920","77677","319434","320499","316225","319434","NA","Sternberg Task ","49","39802","50","yes","1024"
"98.03921568627452","98.03921568627452","792.8627450980392","792.8627450980392","black","experiment","legacy","legacy","legacy","0","uniform","1","undefined","1","left","50","50","0","50","50","0","0","50","0","0","50","50","50","50","0","Mon Oct 12 12:55:14 2020","The main experiment item","yes","SternbergTask.osexp","C:\Users\Owner","no","mono","no","18","no","white","no","yes","768","legacy","38","11","C:/Users/Owner/SMPsubject-2.csv","legacy","9 1 6 7 8","Lentiform Loewenfeld","3.3.3","1","y","yes","0","left","right","right","left","NA","634","1546","10295","634","NA","2","legacy","5","1024","2","48000","-16","experiment","2","even","9","323818","259248","4467","320502","321608","2917","87973","321610","2920","77677","325822","326457","322614","325822","NA","Sternberg Task ","50","40436","51","yes","1024"
"98.07692307692308","98.07692307692308","790.75","790.75","black","experiment","legacy","legacy","legacy","0","uniform","1","undefined","1","left","51","51","0","51","51","0","0","51","0","0","51","51","51","51","0","Mon Oct 12 12:55:14 2020","The main experiment item","yes","SternbergTask.osexp","C:\Users\Owner","no","mono","no","18","no","white","no","yes","768","legacy","39","11","C:/Users/Owner/SMPsubject-2.csv","legacy","4 9 7 8 5 3","Lentiform Loewenfeld","3.3.3","4","y","yes","0","left","right","right","left","NA","683","1546","10295","683","NA","2","legacy","6","1024","2","48000","-16","experiment","2","even","8","329772","259248","4467","326461","327563","2917","87973","327564","2920","77677","331776","332460","328568","331776","NA","Sternberg Task ","51","41119","52","yes","1024"
"98.11320754716981","98.11320754716981","797.8867924528302","797.8867924528302","black","experiment","legacy","legacy","legacy","0","uniform","1","undefined","1","right","52","52","0","52","52","0","0","52","0","0","52","52","52","52","0","Mon Oct 12 12:55:14 2020","The main experiment item","yes","SternbergTask.osexp","C:\Users\Owner","no","mono","no","18","no","white","no","yes","768","legacy","40","11","C:/Users/Owner/SMPsubject-2.csv","legacy","4 2 6 9","Lentiform Loewenfeld","3.3.3","0","n","yes","0","right","right","right","right","NA","1169","1546","10295","1169","NA","2","legacy","4","1024","2","48000","-16","experiment","2","even","7","335781","259248","4467","332463","333572","2917","87973","333573","2920","77677","337785","338955","334577","337785","NA","Sternberg Task ","52","42288","53","yes","1024"
"98.14814814814815","98.14814814814815","798.1481481481482","798.1481481481482","black","experiment","legacy","legacy","legacy","0","uniform","1","undefined","1","right","53","53","0","53","53","0","0","53","0","0","53","53","53","53","0","Mon Oct 12 12:55:14 2020","The main experiment item","yes","SternbergTask.osexp","C:\Users\Owner","no","mono","no","18","no","white","no","yes","768","legacy","41","11","C:/Users/Owner/SMPsubject-2.csv","legacy","8 5 7 3 6","Lentiform Loewenfeld","3.3.3","0","n","yes","0","right","right","right","right","NA","812","1546","10295","812","NA","2","legacy","5","1024","2","48000","-16","experiment","2","even","9","342269","259248","4467","338958","340060","2917","87973","340061","2920","77677","344273","345086","341065","344273","NA","Sternberg Task ","53","43100","54","yes","1024"
"98.18181818181819","98.18181818181819","804.5454545454545","804.5454545454545","black","experiment","legacy","legacy","legacy","0","uniform","1","undefined","1","right","54","54","0","54","54","0","0","54","0","0","54","54","54","54","0","Mon Oct 12 12:55:14 2020","The main experiment item","yes","SternbergTask.osexp","C:\Users\Owner","no","mono","no","18","no","white","no","yes","768","legacy","42","11","C:/Users/Owner/SMPsubject-2.csv","legacy","5 9 2 3","Lentiform Loewenfeld","3.3.3","0","n","yes","0","right","right","right","right","NA","1150","1546","10295","1150","NA","2","legacy","4","1024","2","48000","-16","experiment","2","even","8","348384","259248","4467","345091","346174","2917","87973","346175","2920","77677","350389","351540","347180","350388","NA","Sternberg Task ","54","44250","55","yes","1024"
"98.21428571428571","98.21428571428571","806","806","black","experiment","legacy","legacy","legacy","0","uniform","1","undefined","1","right","55","55","0","55","55","0","0","55","0","0","55","55","55","55","0","Mon Oct 12 12:55:14 2020","The main experiment item","yes","SternbergTask.osexp","C:\Users\Owner","no","mono","no","18","no","white","no","yes","768","legacy","43","11","C:/Users/Owner/SMPsubject-2.csv","legacy","8 4 3 5","Lentiform Loewenfeld","3.3.3","0","n","yes","0","right","right","right","right","NA","886","1546","10295","886","NA","2","legacy","4","1024","2","48000","-16","experiment","2","even","6","354858","259248","4467","351543","352649","2917","87973","352650","2920","77677","356862","357750","353654","356862","NA","Sternberg Task ","55","45136","56","yes","1024"
"98.24561403508773","98.24561403508773","803.438596491228","803.438596491228","black","experiment","legacy","legacy","legacy","0","uniform","1","undefined","1","left","56","56","0","56","56","0","0","56","0","0","56","56","56","56","0","Mon Oct 12 12:55:14 2020","The main experiment item","yes","SternbergTask.osexp","C:\Users\Owner","no","mono","no","18","no","white","no","yes","768","legacy","44","11","C:/Users/Owner/SMPsubject-2.csv","legacy","8","Lentiform Loewenfeld","3.3.3","1","y","yes","0","left","right","right","left","NA","660","1546","10295","660","NA","2","legacy","1","1024","2","48000","-16","experiment","2","even","8","361079","259248","4467","357753","358869","2917","87973","358871","2920","77677","363083","363744","359875","363083","NA","Sternberg Task ","56","45796","57","yes","1024"
"98.27586206896552","98.27586206896552","808.7068965517242","808.7068965517242","black","experiment","legacy","legacy","legacy","0","uniform","1","undefined","1","left","57","57","0","57","57","0","0","57","0","0","57","57","57","57","0","Mon Oct 12 12:55:14 2020","The main experiment item","yes","SternbergTask.osexp","C:\Users\Owner","no","mono","no","18","no","white","no","yes","768","legacy","45","11","C:/Users/Owner/SMPsubject-2.csv","legacy","3 5 7 1","Lentiform Loewenfeld","3.3.3","3","y","yes","0","left","right","right","left","NA","1109","1546","10295","1109","NA","2","legacy","4","1024","2","48000","-16","experiment","2","even","7","367069","259248","4467","363748","364861","2917","87973","364861","2920","77677","369073","370183","365865","369073","NA","Sternberg Task ","57","46905","58","yes","1024"
"98.30508474576271","98.30508474576271","805.3389830508474","805.3389830508474","black","experiment","legacy","legacy","legacy","0","uniform","1","undefined","1","right","58","58","0","58","58","0","0","58","0","0","58","58","58","58","0","Mon Oct 12 12:55:14 2020","The main experiment item","yes","SternbergTask.osexp","C:\Users\Owner","no","mono","no","18","no","white","no","yes","768","legacy","46","11","C:/Users/Owner/SMPsubject-2.csv","legacy","4 1","Lentiform Loewenfeld","3.3.3","0","n","yes","0","right","right","right","right","NA","610","1546","10295","610","NA","2","legacy","2","1024","2","48000","-16","experiment","2","even","6","373497","259248","4467","370187","371288","2917","87973","371289","2920","77677","375501","376112","372293","375501","NA","Sternberg Task ","58","47515","59","yes","1024"
"98.33333333333333","98.33333333333333","802.1666666666666","802.1666666666666","black","experiment","legacy","legacy","legacy","0","uniform","1","undefined","1","left","59","59","0","59","59","0","0","59","0","0","59","59","59","59","0","Mon Oct 12 12:55:14 2020","The main experiment item","yes","SternbergTask.osexp","C:\Users\Owner","no","mono","no","18","no","white","no","yes","768","legacy","47","11","C:/Users/Owner/SMPsubject-2.csv","legacy","9 4 2","Lentiform Loewenfeld","3.3.3","1","y","yes","0","left","right","right","left","NA","615","1546","10295","615","NA","2","legacy","3","1024","2","48000","-16","experiment","2","even","9","379432","259248","4467","376116","377222","2917","87973","377224","2920","77677","381436","382052","378228","381436","NA","Sternberg Task ","59","48130","60","yes","1024"
"98.36065573770492","98.36065573770492","801.5245901639345","801.5245901639345","black","experiment","legacy","legacy","legacy","0","uniform","1","undefined","1","right","60","60","0","60","60","0","0","60","0","0","60","60","60","60","0","Mon Oct 12 12:55:14 2020","The main experiment item","yes","SternbergTask.osexp","C:\Users\Owner","no","mono","no","18","no","white","no","yes","768","legacy","48","11","C:/Users/Owner/SMPsubject-2.csv","legacy","3 9 1","Lentiform Loewenfeld","3.3.3","0","n","yes","0","right","right","right","right","NA","763","1546","10295","763","NA","2","legacy","3","1024","2","48000","-16","experiment","2","even","7","385378","259248","4467","382055","383171","2917","87973","383173","2920","77677","387382","388147","384174","387381","NA","Sternberg Task ","60","48893","61","yes","1024"
"98.38709677419355","98.38709677419355","800.9677419354839","800.9677419354839","black","experiment","legacy","legacy","legacy","0","uniform","1","undefined","1","left","61","61","0","61","61","0","0","61","0","0","61","61","61","61","0","Mon Oct 12 12:55:14 2020","The main experiment item","yes","SternbergTask.osexp","C:\Users\Owner","no","mono","no","18","no","white","no","yes","768","legacy","49","11","C:/Users/Owner/SMPsubject-2.csv","legacy","8 9 5 6 7","Lentiform Loewenfeld","3.3.3","1","y","yes","0","left","right","right","left","NA","767","1546","10295","767","NA","2","legacy","5","1024","2","48000","-16","experiment","2","even","8","391453","259248","4467","388150","389246","2917","87973","389248","2920","77677","393457","394226","390249","393457","NA","Sternberg Task ","61","49660","62","yes","1024"
"98.41269841269842","98.41269841269842","806.015873015873","806.015873015873","black","experiment","legacy","legacy","legacy","0","uniform","1","undefined","1","left","62","62","0","62","62","0","0","62","0","0","62","62","62","62","0","Mon Oct 12 12:55:14 2020","The main experiment item","yes","SternbergTask.osexp","C:\Users\Owner","no","mono","no","18","no","white","no","yes","768","legacy","50","11","C:/Users/Owner/SMPsubject-2.csv","legacy","8 5 3 7 4 6","Lentiform Loewenfeld","3.3.3","6","y","yes","0","left","right","right","left","NA","1119","1546","10295","1119","NA","2","legacy","6","1024","2","48000","-16","experiment","2","even","6","397549","259248","4467","394229","395339","2917","87973","395341","2920","77677","399553","400674","396345","399553","NA","Sternberg Task ","62","50779","63","yes","1024"
"98.4375","98.4375","803.515625","803.515625","black","experiment","legacy","legacy","legacy","0","uniform","1","undefined","1","left","63","63","0","63","63","0","0","63","0","0","63","63","63","63","0","Mon Oct 12 12:55:14 2020","The main experiment item","yes","SternbergTask.osexp","C:\Users\Owner","no","mono","no","18","no","white","no","yes","768","legacy","51","11","C:/Users/Owner/SMPsubject-2.csv","legacy","9 8 4","Lentiform Loewenfeld","3.3.3","1","y","yes","0","left","right","right","left","NA","646","1546","10295","646","NA","2","legacy","3","1024","2","48000","-16","experiment","2","even","9","403997","259248","4467","400677","401788","2917","87973","401789","2920","77677","406001","406648","402793","406001","NA","Sternberg Task ","63","51425","64","yes","1024"
"98.46153846153847","98.46153846153847","800.7846153846153","800.7846153846153","black","experiment","legacy","legacy","legacy","0","uniform","1","undefined","1","left","64","64","0","64","64","0","0","64","0","0","64","64","64","64","0","Mon Oct 12 12:55:14 2020","The main experiment item","yes","SternbergTask.osexp","C:\Users\Owner","no","mono","no","18","no","white","no","yes","768","legacy","52","11","C:/Users/Owner/SMPsubject-2.csv","legacy","8 9 5 7 1 6","Lentiform Loewenfeld","3.3.3","4","y","yes","0","left","right","right","left","NA","626","1546","10295","626","NA","2","legacy","6","1024","2","48000","-16","experiment","2","even","7","409964","259248","4467","406652","407754","2917","87973","407756","2920","77677","411969","412597","408760","411968","NA","Sternberg Task ","64","52051","65","yes","1024"
"98.48484848484848","98.48484848484848","798.4848484848485","798.4848484848485","black","experiment","legacy","legacy","legacy","0","uniform","1","undefined","1","right","65","65","0","65","65","0","0","65","0","0","65","65","65","65","0","Mon Oct 12 12:55:14 2020","The main experiment item","yes","SternbergTask.osexp","C:\Users\Owner","no","mono","no","18","no","white","no","yes","768","legacy","53","11","C:/Users/Owner/SMPsubject-2.csv","legacy","3 9 8 1 6 4","Lentiform Loewenfeld","3.3.3","0","n","yes","0","right","right","right","right","NA","649","1546","10295","649","NA","2","legacy","6","1024","2","48000","-16","experiment","2","even","7","415917","259248","4467","412600","413708","2917","87973","413709","2920","77677","417918","418569","414712","417918","NA","Sternberg Task ","65","52700","66","yes","1024"
"98.50746268656717","98.50746268656717","802.6716417910447","802.6716417910447","black","experiment","legacy","legacy","legacy","0","uniform","1","undefined","1","right","66","66","0","66","66","0","0","66","0","0","66","66","66","66","0","Mon Oct 12 12:55:14 2020","The main experiment item","yes","SternbergTask.osexp","C:\Users\Owner","no","mono","no","18","no","white","no","yes","768","legacy","54","11","C:/Users/Owner/SMPsubject-2.csv","legacy","1 3 2 6 9","Lentiform Loewenfeld","3.3.3","0","n","yes","0","right","right","right","right","NA","1079","1546","10295","1079","NA","2","legacy","5","1024","2","48000","-16","experiment","2","even","5","421882","259248","4467","418573","419677","2917","87973","419678","2920","77677","423886","424966","420681","423886","NA","Sternberg Task ","66","53779","67","yes","1024"
"98.52941176470588","98.52941176470588","800.1911764705883","800.1911764705883","black","experiment","legacy","legacy","legacy","0","uniform","1","undefined","1","left","67","67","0","67","67","0","0","67","0","0","67","67","67","67","0","Mon Oct 12 12:55:14 2020","The main experiment item","yes","SternbergTask.osexp","C:\Users\Owner","no","mono","no","18","no","white","no","yes","768","legacy","55","11","C:/Users/Owner/SMPsubject-2.csv","legacy","3 9 6 2","Lentiform Loewenfeld","3.3.3","4","y","yes","0","left","right","right","left","NA","634","1546","10295","634","NA","2","legacy","4","1024","2","48000","-16","experiment","2","even","2","428275","259248","4467","424969","426071","2917","87973","426072","2920","77677","430279","430916","427073","430279","NA","Sternberg Task ","67","54413","68","yes","1024"
"98.55072463768116","98.55072463768116","799.7971014492754","799.7971014492754","black","experiment","legacy","legacy","legacy","0","uniform","1","undefined","1","right","68","68","0","68","68","0","0","68","0","0","68","68","68","68","0","Mon Oct 12 12:55:14 2020","The main experiment item","yes","SternbergTask.osexp","C:\Users\Owner","no","mono","no","18","no","white","no","yes","768","legacy","56","11","C:/Users/Owner/SMPsubject-2.csv","legacy","2 8 9 4 1","Lentiform Loewenfeld","3.3.3","0","n","yes","0","right","right","right","right","NA","773","1546","10295","773","NA","2","legacy","5","1024","2","48000","-16","experiment","2","even","5","434239","259248","4467","430919","432032","2917","87973","432034","2920","77677","436240","437014","433038","436240","NA","Sternberg Task ","68","55186","69","yes","1024"
"98.57142857142857","98.57142857142857","803.6285714285714","803.6285714285714","black","experiment","legacy","legacy","legacy","0","uniform","1","undefined","1","right","69","69","0","69","69","0","0","69","0","0","69","69","69","69","0","Mon Oct 12 12:55:14 2020","The main experiment item","yes","SternbergTask.osexp","C:\Users\Owner","no","mono","no","18","no","white","no","yes","768","legacy","57","11","C:/Users/Owner/SMPsubject-2.csv","legacy","6 9 7 3 8 2","Lentiform Loewenfeld","3.3.3","0","n","yes","0","right","right","right","right","NA","1068","1546","10295","1068","NA","2","legacy","6","1024","2","48000","-16","experiment","2","even","5","440330","259248","4467","437018","438120","2917","87973","438121","2920","77677","442334","443404","439125","442334","NA","Sternberg Task ","69","56254","70","yes","1024"
"98.59154929577464","98.59154929577464","802.5352112676056","802.5352112676056","black","experiment","legacy","legacy","legacy","0","uniform","1","undefined","1","left","70","70","0","70","70","0","0","70","0","0","70","70","70","70","0","Mon Oct 12 12:55:14 2020","The main experiment item","yes","SternbergTask.osexp","C:\Users\Owner","no","mono","no","18","no","white","no","yes","768","legacy","58","11","C:/Users/Owner/SMPsubject-2.csv","legacy","5 7 3 6 2","Lentiform Loewenfeld","3.3.3","5","y","yes","0","left","right","right","left","NA","726","1546","10295","726","NA","2","legacy","5","1024","2","48000","-16","experiment","2","even","2","446685","259248","4467","443408","444478","2917","87973","444480","2920","77677","448686","449414","445481","448686","NA","Sternberg Task ","70","56980","71","yes","1024"
"98.61111111111111","98.61111111111111","800.2916666666666","800.2916666666666","black","experiment","legacy","legacy","legacy","0","uniform","1","undefined","1","right","71","71","0","71","71","0","0","71","0","0","71","71","71","71","0","Mon Oct 12 12:55:14 2020","The main experiment item","yes","SternbergTask.osexp","C:\Users\Owner","no","mono","no","18","no","white","no","yes","768","legacy","59","11","C:/Users/Owner/SMPsubject-2.csv","legacy","7 9 1 6","Lentiform Loewenfeld","3.3.3","0","n","yes","0","right","right","right","right","NA","641","1546","10295","641","NA","2","legacy","4","1024","2","48000","-16","experiment","2","even","4","452743","259248","4467","449417","450534","2917","87973","450535","2920","77677","454747","455389","451539","454747","NA","Sternberg Task ","71","57621","72","yes","1024"
"98.63013698630137","98.63013698630137","803.1506849315068","803.1506849315068","black","experiment","legacy","legacy","legacy","0","uniform","1","undefined","1","right","72","72","0","72","72","0","0","72","0","0","72","72","72","72","0","Mon Oct 12 12:55:14 2020","The main experiment item","yes","SternbergTask.osexp","C:\Users\Owner","no","mono","no","18","no","white","no","yes","768","legacy","60","11","C:/Users/Owner/SMPsubject-2.csv","legacy","8 4 3 9","Lentiform Loewenfeld","3.3.3","0","n","yes","0","right","right","right","right","NA","1009","1546","10295","1009","NA","2","legacy","4","1024","2","48000","-16","experiment","2","even","5","458718","259248","4467","455393","456508","2917","87973","456509","2920","77677","460722","461731","457512","460722","NA","Sternberg Task ","72","58630","73","yes","1024"
"98.64864864864865","98.64864864864865","802.9054054054054","802.9054054054054","black","experiment","legacy","legacy","legacy","0","uniform","1","undefined","1","right","73","73","0","73","73","0","0","73","0","0","73","73","73","73","0","Mon Oct 12 12:55:14 2020","The main experiment item","yes","SternbergTask.osexp","C:\Users\Owner","no","mono","no","18","no","white","no","yes","768","legacy","61","11","C:/Users/Owner/SMPsubject-2.csv","legacy","9 5 3 2 8 6","Lentiform Loewenfeld","3.3.3","0","n","yes","0","right","right","right","right","NA","785","1546","10295","785","NA","2","legacy","6","1024","2","48000","-16","experiment","2","even","7","465053","259248","4467","461734","462844","2917","87973","462845","2920","77677","467054","467841","463849","467054","NA","Sternberg Task ","73","59415","74","yes","1024"
"98.66666666666667","98.66666666666667","803.12","803.12","black","experiment","legacy","legacy","legacy","0","uniform","1","undefined","1","left","74","74","0","74","74","0","0","74","0","0","74","74","74","74","0","Mon Oct 12 12:55:14 2020","The main experiment item","yes","SternbergTask.osexp","C:\Users\Owner","no","mono","no","18","no","white","no","yes","768","legacy","62","11","C:/Users/Owner/SMPsubject-2.csv","legacy","4 1 5","Lentiform Loewenfeld","3.3.3","2","y","yes","0","left","right","right","left","NA","819","1546","10295","819","NA","2","legacy","3","1024","2","48000","-16","experiment","2","even","1","471165","259248","4467","467843","468956","2917","87973","468957","2920","77677","473169","473989","469961","473169","NA","Sternberg Task ","74","60234","75","yes","1024"
"98.6842105263158","98.6842105263158","800.6973684210526","800.6973684210526","black","experiment","legacy","legacy","legacy","0","uniform","1","undefined","1","left","75","75","0","75","75","0","0","75","0","0","75","75","75","75","0","Mon Oct 12 12:55:14 2020","The main experiment item","yes","SternbergTask.osexp","C:\Users\Owner","no","mono","no","18","no","white","no","yes","768","legacy","63","11","C:/Users/Owner/SMPsubject-2.csv","legacy","6 2","Lentiform Loewenfeld","3.3.3","1","y","yes","0","left","right","right","left","NA","619","1546","10295","619","NA","2","legacy","2","1024","2","48000","-16","experiment","2","even","6","477307","259248","4467","473993","475100","2917","87973","475101","2920","77677","479312","479932","476104","479312","NA","Sternberg Task ","75","60853","76","yes","1024"
"98.7012987012987","98.7012987012987","800.4155844155844","800.4155844155844","black","experiment","legacy","legacy","legacy","0","uniform","1","undefined","1","left","76","76","0","76","76","0","0","76","0","0","76","76","76","76","0","Mon Oct 12 12:55:14 2020","The main experiment item","yes","SternbergTask.osexp","C:\Users\Owner","no","mono","no","18","no","white","no","yes","768","legacy","64","11","C:/Users/Owner/SMPsubject-2.csv","legacy","1 4 9 3 2 5","Lentiform Loewenfeld","3.3.3","3","y","yes","0","left","right","right","left","NA","779","1546","10295","779","NA","2","legacy","6","1024","2","48000","-16","experiment","2","even","9","483211","259248","4467","479935","481005","2917","87973","481006","2920","77677","485212","485992","482007","485212","NA","Sternberg Task ","76","61632","77","yes","1024"
"98.71794871794872","98.71794871794872","803.1025641025641","803.1025641025641","black","experiment","legacy","legacy","legacy","0","uniform","1","undefined","1","left","77","77","0","77","77","0","0","77","0","0","77","77","77","77","0","Mon Oct 12 12:55:14 2020","The main experiment item","yes","SternbergTask.osexp","C:\Users\Owner","no","mono","no","18","no","white","no","yes","768","legacy","65","11","C:/Users/Owner/SMPsubject-2.csv","legacy","6 5","Lentiform Loewenfeld","3.3.3","2","y","yes","0","left","right","right","left","NA","1010","1546","10295","1010","NA","2","legacy","2","1024","2","48000","-16","experiment","2","even","5","489304","259248","4467","485995","487095","2917","87973","487096","2920","77677","491308","492319","488100","491308","NA","Sternberg Task ","77","62642","78","yes","1024"
"98.73417721518987","98.73417721518987","802.5316455696203","802.5316455696203","black","experiment","legacy","legacy","legacy","0","uniform","1","undefined","1","left","78","78","0","78","78","0","0","78","0","0","78","78","78","78","0","Mon Oct 12 12:55:14 2020","The main experiment item","yes","SternbergTask.osexp","C:\Users\Owner","no","mono","no","18","no","white","no","yes","768","legacy","66","11","C:/Users/Owner/SMPsubject-2.csv","legacy","4 1 8 7 5","Lentiform Loewenfeld","3.3.3","3","y","yes","0","left","right","right","left","NA","758","1546","10295","758","NA","2","legacy","5","1024","2","48000","-16","experiment","2","even","8","495648","259248","4467","492323","493439","2917","87973","493440","2920","77677","497652","498412","494444","497652","NA","Sternberg Task ","78","63400","79","yes","1024"
"98.75","98.75","801.5125","801.5125","black","experiment","legacy","legacy","legacy","0","uniform","1","undefined","1","right","79","79","0","79","79","0","0","79","0","0","79","79","79","79","0","Mon Oct 12 12:55:14 2020","The main experiment item","yes","SternbergTask.osexp","C:\Users\Owner","no","mono","no","18","no","white","no","yes","768","legacy","67","11","C:/Users/Owner/SMPsubject-2.csv","legacy","9 8 2 7 4","Lentiform Loewenfeld","3.3.3","0","n","yes","0","right","right","right","right","NA","721","1546","10295","721","NA","2","legacy","5","1024","2","48000","-16","experiment","2","even","5","501733","259248","4467","498415","499524","2917","87973","499525","2920","77677","503737","504459","500529","503737","NA","Sternberg Task ","79","64121","80","yes","1024"
"98.76543209876543","98.76543209876543","800.5185185185185","800.5185185185185","black","experiment","legacy","legacy","legacy","0","uniform","1","undefined","1","left","80","80","0","80","80","0","0","80","0","0","80","80","80","80","0","Mon Oct 12 12:55:14 2020","The main experiment item","yes","SternbergTask.osexp","C:\Users\Owner","no","mono","no","18","no","white","no","yes","768","legacy","68","11","C:/Users/Owner/SMPsubject-2.csv","legacy","8 1 6","Lentiform Loewenfeld","3.3.3","3","y","yes","0","left","right","right","left","NA","721","1546","10295","721","NA","2","legacy","3","1024","2","48000","-16","experiment","2","even","6","507776","259248","4467","504463","505569","2917","87973","505571","2920","77677","509780","510502","506575","509780","NA","Sternberg Task ","80","64842","81","yes","1024"
"97.5609756097561","97.5609756097561","806.5487804878048","806.5487804878048","black","experiment","legacy","legacy","legacy","0","uniform","0","undefined","0","left","81","81","0","81","81","0","0","81","0","0","81","81","81","81","0","Mon Oct 12 12:55:14 2020","The main experiment item","yes","SternbergTask.osexp","C:\Users\Owner","no","mono","no","18","no","white","no","yes","768","legacy","69","11","C:/Users/Owner/SMPsubject-2.csv","legacy","2 5 4 8 7","Lentiform Loewenfeld","3.3.3","3","y","yes","0","right","right","right","right","NA","1295","1546","10295","1295","NA","2","legacy","5","1024","2","48000","-16","experiment","2","even","4","513821","259248","4467","510505","511611","2917","87973","511612","2920","77677","515825","517121","512617","515825","NA","Sternberg Task ","80","66137","82","yes","1024"
"97.59036144578313","97.59036144578313","802.6385542168674","802.6385542168674","black","experiment","legacy","legacy","legacy","0","uniform","1","undefined","1","left","82","82","0","82","82","0","0","82","0","0","82","82","82","82","0","Mon Oct 12 12:55:14 2020","The main experiment item","yes","SternbergTask.osexp","C:\Users\Owner","no","mono","no","18","no","white","no","yes","768","legacy","70","11","C:/Users/Owner/SMPsubject-2.csv","legacy","7","Lentiform Loewenfeld","3.3.3","1","y","yes","0","left","right","right","left","NA","482","1546","10295","482","NA","2","legacy","1","1024","2","48000","-16","experiment","2","even","7","520433","517124","4467","510505","518226","2917","87973","518227","2920","77677","522437","522920","519229","522437","NA","Sternberg Task ","81","66619","83","yes","1024"
"97.61904761904762","97.61904761904762","804.4166666666666","804.4166666666666","black","experiment","legacy","legacy","legacy","0","uniform","1","undefined","1","left","83","83","0","83","83","0","0","83","0","0","83","83","83","83","0","Mon Oct 12 12:55:14 2020","The main experiment item","yes","SternbergTask.osexp","C:\Users\Owner","no","mono","no","18","no","white","no","yes","768","legacy","71","11","C:/Users/Owner/SMPsubject-2.csv","legacy","7 8 6 3 1","Lentiform Loewenfeld","3.3.3","5","y","yes","0","left","right","right","left","NA","952","1546","10295","952","NA","2","legacy","5","1024","2","48000","-16","experiment","2","even","1","526195","517124","4467","522925","523986","2917","87973","523987","2920","77677","528200","529153","524991","528199","NA","Sternberg Task ","82","67571","84","yes","1024"
"97.6470588235294","97.6470588235294","804.8470588235294","804.8470588235294","black","experiment","legacy","legacy","legacy","0","uniform","1","undefined","1","left","84","84","0","84","84","0","0","84","0","0","84","84","84","84","0","Mon Oct 12 12:55:14 2020","The main experiment item","yes","SternbergTask.osexp","C:\Users\Owner","no","mono","no","18","no","white","no","yes","768","legacy","72","11","C:/Users/Owner/SMPsubject-2.csv","legacy","9 3 8 2 1 4","Lentiform Loewenfeld","3.3.3","3","y","yes","0","left","right","right","left","NA","841","1546","10295","841","NA","2","legacy","6","1024","2","48000","-16","experiment","2","even","8","532455","517124","4467","529157","530245","2917","87973","530247","2920","77677","534460","535302","531251","534459","NA","Sternberg Task ","83","68412","85","yes","1024"
"97.67441860465117","97.67441860465117","806.3953488372093","806.3953488372093","black","experiment","legacy","legacy","legacy","0","uniform","1","undefined","1","left","85","85","0","85","85","0","0","85","0","0","85","85","85","85","0","Mon Oct 12 12:55:14 2020","The main experiment item","yes","SternbergTask.osexp","C:\Users\Owner","no","mono","no","18","no","white","no","yes","768","legacy","73","11","C:/Users/Owner/SMPsubject-2.csv","legacy","6 9 7 4 5 1","Lentiform Loewenfeld","3.3.3","2","y","yes","0","left","right","right","left","NA","938","1546","10295","938","NA","2","legacy","6","1024","2","48000","-16","experiment","2","even","9","538606","517124","4467","535305","536397","2917","87973","536398","2920","77677","540610","541550","537402","540610","NA","Sternberg Task ","84","69350","86","yes","1024"
"97.70114942528735","97.70114942528735","803.6436781609195","803.6436781609195","black","experiment","legacy","legacy","legacy","0","uniform","1","undefined","1","left","86","86","0","86","86","0","0","86","0","0","86","86","86","86","0","Mon Oct 12 12:55:14 2020","The main experiment item","yes","SternbergTask.osexp","C:\Users\Owner","no","mono","no","18","no","white","no","yes","768","legacy","74","11","C:/Users/Owner/SMPsubject-2.csv","legacy","3 4","Lentiform Loewenfeld","3.3.3","1","y","yes","0","left","right","right","left","NA","567","1546","10295","567","NA","2","legacy","2","1024","2","48000","-16","experiment","2","even","3","544867","517124","4467","541553","542657","2917","87973","542659","2920","77677","546870","547438","543663","546870","NA","Sternberg Task ","85","69917","87","yes","1024"
"97.72727272727273","97.72727272727273","801.6931818181819","801.6931818181819","black","experiment","legacy","legacy","legacy","0","uniform","1","undefined","1","left","87","87","0","87","87","0","0","87","0","0","87","87","87","87","0","Mon Oct 12 12:55:14 2020","The main experiment item","yes","SternbergTask.osexp","C:\Users\Owner","no","mono","no","18","no","white","no","yes","768","legacy","75","11","C:/Users/Owner/SMPsubject-2.csv","legacy","2 4 6 9","Lentiform Loewenfeld","3.3.3","3","y","yes","0","left","right","right","left","NA","632","1546","10295","632","NA","2","legacy","4","1024","2","48000","-16","experiment","2","even","6","550712","517124","4467","547442","548504","2917","87973","548505","2920","77677","552716","553349","549508","552716","NA","Sternberg Task ","86","70549","88","yes","1024"
"97.75280898876404","97.75280898876404","800.9550561797753","800.9550561797753","black","experiment","legacy","legacy","legacy","0","uniform","1","undefined","1","left","88","88","0","88","88","0","0","88","0","0","88","88","88","88","0","Mon Oct 12 12:55:14 2020","The main experiment item","yes","SternbergTask.osexp","C:\Users\Owner","no","mono","no","18","no","white","no","yes","768","legacy","76","11","C:/Users/Owner/SMPsubject-2.csv","legacy","2 3 7 4","Lentiform Loewenfeld","3.3.3","1","y","yes","0","left","right","right","left","NA","736","1546","10295","736","NA","2","legacy","4","1024","2","48000","-16","experiment","2","even","2","556646","517124","4467","553355","554437","2917","87973","554438","2920","77677","558650","559387","555442","558650","NA","Sternberg Task ","87","71285","89","yes","1024"
"97.77777777777777","97.77777777777777","800.8222222222222","800.8222222222222","black","experiment","legacy","legacy","legacy","0","uniform","1","undefined","1","right","89","89","0","89","89","0","0","89","0","0","89","89","89","89","0","Mon Oct 12 12:55:14 2020","The main experiment item","yes","SternbergTask.osexp","C:\Users\Owner","no","mono","no","18","no","white","no","yes","768","legacy","77","11","C:/Users/Owner/SMPsubject-2.csv","legacy","7 1 8 4 9 3","Lentiform Loewenfeld","3.3.3","0","n","yes","0","right","right","right","right","NA","789","1546","10295","789","NA","2","legacy","6","1024","2","48000","-16","experiment","2","even","6","562661","517124","4467","559390","560452","2917","87973","560453","2920","77677","564665","565456","561457","564665","NA","Sternberg Task ","88","72074","90","yes","1024"
"96.7032967032967","96.7032967032967","805.4285714285714","805.4285714285714","black","experiment","legacy","legacy","legacy","0","uniform","0","undefined","0","left","90","90","0","90","90","0","0","90","0","0","90","90","90","90","0","Mon Oct 12 12:55:14 2020","The main experiment item","yes","SternbergTask.osexp","C:\Users\Owner","no","mono","no","18","no","white","no","yes","768","legacy","78","11","C:/Users/Owner/SMPsubject-2.csv","legacy","6 8 9 3 4 9","Lentiform Loewenfeld","3.3.3","5","y","yes","0","right","right","right","right","NA","1220","1546","10295","1220","NA","2","legacy","6","1024","2","48000","-16","experiment","2","even","4","568774","517124","4467","565460","566564","2917","87973","566567","2920","77677","570778","572000","567571","570778","NA","Sternberg Task ","88","73294","91","yes","1024"
"96.73913043478261","96.73913043478261","806.3913043478261","806.3913043478261","black","experiment","legacy","legacy","legacy","0","uniform","1","undefined","1","right","91","91","0","91","91","0","0","91","0","0","91","91","91","91","0","Mon Oct 12 12:55:14 2020","The main experiment item","yes","SternbergTask.osexp","C:\Users\Owner","no","mono","no","18","no","white","no","yes","768","legacy","79","11","C:/Users/Owner/SMPsubject-2.csv","legacy","2 3 8 5 6 7","Lentiform Loewenfeld","3.3.3","0","n","yes","0","right","right","right","right","NA","894","1546","10295","894","NA","2","legacy","6","1024","2","48000","-16","experiment","2","even","1","575317","572004","4467","565460","573111","2917","87973","573112","2920","77677","577321","578217","574116","577321","NA","Sternberg Task ","89","74188","92","yes","1024"
"96.7741935483871","96.7741935483871","804.2795698924731","804.2795698924731","black","experiment","legacy","legacy","legacy","0","uniform","1","undefined","1","left","92","92","0","92","92","0","0","92","0","0","92","92","92","92","0","Mon Oct 12 12:55:14 2020","The main experiment item","yes","SternbergTask.osexp","C:\Users\Owner","no","mono","no","18","no","white","no","yes","768","legacy","80","11","C:/Users/Owner/SMPsubject-2.csv","legacy","9 6 2 4 1","Lentiform Loewenfeld","3.3.3","4","y","yes","0","left","right","right","left","NA","610","1546","10295","610","NA","2","legacy","5","1024","2","48000","-16","experiment","2","even","4","581532","572004","4467","578220","579323","2917","87973","579323","2920","77677","583536","584147","580328","583536","NA","Sternberg Task ","90","74798","93","yes","1024"
"96.80851063829788","96.80851063829788","802.9042553191489","802.9042553191489","black","experiment","legacy","legacy","legacy","0","uniform","1","undefined","1","right","93","93","0","93","93","0","0","93","0","0","93","93","93","93","0","Mon Oct 12 12:55:14 2020","The main experiment item","yes","SternbergTask.osexp","C:\Users\Owner","no","mono","no","18","no","white","no","yes","768","legacy","81","11","C:/Users/Owner/SMPsubject-2.csv","legacy","3 4 2","Lentiform Loewenfeld","3.3.3","0","n","yes","0","right","right","right","right","NA","675","1546","10295","675","NA","2","legacy","3","1024","2","48000","-16","experiment","2","even","5","587458","572004","4467","584150","585252","2917","87973","585253","2920","77677","589462","590138","586254","589462","NA","Sternberg Task ","91","75473","94","yes","1024"
"96.84210526315789","96.84210526315789","802.3263157894737","802.3263157894737","black","experiment","legacy","legacy","legacy","0","uniform","1","undefined","1","right","94","94","0","94","94","0","0","94","0","0","94","94","94","94","0","Mon Oct 12 12:55:14 2020","The main experiment item","yes","SternbergTask.osexp","C:\Users\Owner","no","mono","no","18","no","white","no","yes","768","legacy","82","11","C:/Users/Owner/SMPsubject-2.csv","legacy","8 9","Lentiform Loewenfeld","3.3.3","0","n","yes","0","right","right","right","right","NA","748","1546","10295","748","NA","2","legacy","2","1024","2","48000","-16","experiment","2","even","5","593449","572004","4467","590142","591240","2917","87973","591241","2920","77677","595453","596202","592245","595453","NA","Sternberg Task ","92","76221","95","yes","1024"
"96.875","96.875","799.8958333333334","799.8958333333334","black","experiment","legacy","legacy","legacy","0","uniform","1","undefined","1","right","95","95","0","95","95","0","0","95","0","0","95","95","95","95","0","Mon Oct 12 12:55:14 2020","The main experiment item","yes","SternbergTask.osexp","C:\Users\Owner","no","mono","no","18","no","white","no","yes","768","legacy","83","11","C:/Users/Owner/SMPsubject-2.csv","legacy","7 3 2 8","Lentiform Loewenfeld","3.3.3","0","n","yes","0","right","right","right","right","NA","569","1546","10295","569","NA","2","legacy","4","1024","2","48000","-16","experiment","2","even","4","599477","572004","4467","596206","597272","2917","87973","597273","2920","77677","601482","602052","598274","601481","NA","Sternberg Task ","93","76790","96","yes","1024"
"96.90721649484536","96.90721649484536","798.7938144329897","798.7938144329897","black","experiment","legacy","legacy","legacy","0","uniform","1","undefined","1","left","96","96","0","96","96","0","0","96","0","0","96","96","96","96","0","Mon Oct 12 12:55:14 2020","The main experiment item","yes","SternbergTask.osexp","C:\Users\Owner","no","mono","no","18","no","white","no","yes","768","legacy","84","11","C:/Users/Owner/SMPsubject-2.csv","legacy","6 7 8 5","Lentiform Loewenfeld","3.3.3","3","y","yes","0","left","right","right","left","NA","693","1546","10295","693","NA","2","legacy","4","1024","2","48000","-16","experiment","2","even","8","605371","572004","4467","602060","603162","2917","87973","603164","2920","77677","607375","608069","604168","607375","NA","Sternberg Task ","94","77483","97","yes","1024"
"96.93877551020408","96.93877551020408","797","797","black","experiment","legacy","legacy","legacy","0","uniform","1","undefined","1","right","97","97","0","97","97","0","0","97","0","0","97","97","97","97","0","Mon Oct 12 12:55:14 2020","The main experiment item","yes","SternbergTask.osexp","C:\Users\Owner","no","mono","no","18","no","white","no","yes","768","legacy","85","11","C:/Users/Owner/SMPsubject-2.csv","legacy","7 8 6 1","Lentiform Loewenfeld","3.3.3","0","n","yes","0","right","right","right","right","NA","623","1546","10295","623","NA","2","legacy","4","1024","2","48000","-16","experiment","2","even","3","611384","572004","4467","608072","609177","2917","87973","609178","2920","77677","613388","614012","610180","613388","NA","Sternberg Task ","95","78106","98","yes","1024"
"96.96969696969697","96.96969696969697","797.1313131313132","797.1313131313132","black","experiment","legacy","legacy","legacy","0","uniform","1","undefined","1","right","98","98","0","98","98","0","0","98","0","0","98","98","98","98","0","Mon Oct 12 12:55:14 2020","The main experiment item","yes","SternbergTask.osexp","C:\Users\Owner","no","mono","no","18","no","white","no","yes","768","legacy","86","11","C:/Users/Owner/SMPsubject-2.csv","legacy","6 9 5","Lentiform Loewenfeld","3.3.3","0","n","yes","0","right","right","right","right","NA","810","1546","10295","810","NA","2","legacy","3","1024","2","48000","-16","experiment","2","even","8","617356","572004","4467","614016","615147","2917","87973","615148","2920","77677","619360","620171","616151","619359","NA","Sternberg Task ","96","78916","99","yes","1024"
"97","97","796.28","796.28","black","experiment","legacy","legacy","legacy","0","uniform","1","undefined","1","right","99","99","0","99","99","0","0","99","0","0","99","99","99","99","0","Mon Oct 12 12:55:14 2020","The main experiment item","yes","SternbergTask.osexp","C:\Users\Owner","no","mono","no","18","no","white","no","yes","768","legacy","87","11","C:/Users/Owner/SMPsubject-2.csv","legacy","6 7 5 9","Lentiform Loewenfeld","3.3.3","0","n","yes","0","right","right","right","right","NA","712","1546","10295","712","NA","2","legacy","4","1024","2","48000","-16","experiment","2","even","2","623464","572004","4467","620175","621258","2917","87973","621259","2920","77677","625468","626182","622262","625468","NA","Sternberg Task ","97","79628","100","yes","1024"
"97.02970297029702","97.02970297029702","794.3069306930693","794.3069306930693","black","experiment","legacy","legacy","legacy","0","uniform","1","undefined","1","right","100","100","0","100","100","0","0","100","0","0","100","100","100","100","0","Mon Oct 12 12:55:14 2020","The main experiment item","yes","SternbergTask.osexp","C:\Users\Owner","no","mono","no","18","no","white","no","yes","768","legacy","88","11","C:/Users/Owner/SMPsubject-2.csv","legacy","1 8 7","Lentiform Loewenfeld","3.3.3","0","n","yes","0","right","right","right","right","NA","597","1546","10295","597","NA","2","legacy","3","1024","2","48000","-16","experiment","2","even","4","629506","572004","4467","626185","627298","2917","87973","627299","2920","77677","631511","632110","628302","631511","NA","Sternberg Task ","98","80225","101","yes","1024"
"97.05882352941177","97.05882352941177","791.9215686274509","791.9215686274509","black","experiment","legacy","legacy","legacy","0","uniform","1","undefined","1","right","101","101","0","101","101","0","0","101","0","0","101","101","101","101","0","Mon Oct 12 12:55:14 2020","The main experiment item","yes","SternbergTask.osexp","C:\Users\Owner","no","mono","no","18","no","white","no","yes","768","legacy","89","11","C:/Users/Owner/SMPsubject-2.csv","legacy","7 4 2 8 1 9","Lentiform Loewenfeld","3.3.3","0","n","yes","0","right","right","right","right","NA","551","1546","10295","551","NA","2","legacy","6","1024","2","48000","-16","experiment","2","even","5","635381","572004","4467","632113","633175","2917","87973","633176","2920","77677","637385","637937","634177","637385","NA","Sternberg Task ","99","80776","102","yes","1024"
"97.0873786407767","97.0873786407767","792.9902912621359","792.9902912621359","black","experiment","legacy","legacy","legacy","0","uniform","1","undefined","1","right","102","102","0","102","102","0","0","102","0","0","102","102","102","102","0","Mon Oct 12 12:55:14 2020","The main experiment item","yes","SternbergTask.osexp","C:\Users\Owner","no","mono","no","18","no","white","no","yes","768","legacy","90","11","C:/Users/Owner/SMPsubject-2.csv","legacy","1 6 4 3 9 7","Lentiform Loewenfeld","3.3.3","0","n","yes","0","right","right","right","right","NA","902","1546","10295","902","NA","2","legacy","6","1024","2","48000","-16","experiment","2","even","8","641249","572004","4467","637939","639040","2917","87973","639041","2920","77677","643253","644156","640045","643253","NA","Sternberg Task ","100","81678","103","yes","1024"
"96.15384615384616","96.15384615384616","793.5576923076923","793.5576923076923","black","experiment","legacy","legacy","legacy","0","uniform","0","undefined","0","left","103","103","0","103","103","0","0","103","0","0","103","103","103","103","0","Mon Oct 12 12:55:14 2020","The main experiment item","yes","SternbergTask.osexp","C:\Users\Owner","no","mono","no","18","no","white","no","yes","768","legacy","91","11","C:/Users/Owner/SMPsubject-2.csv","legacy","2 8 5 1","Lentiform Loewenfeld","3.3.3","4","y","yes","0","right","right","right","right","NA","852","1546","10295","852","NA","2","legacy","4","1024","2","48000","-16","experiment","2","even","1","647464","572004","4467","644160","645254","2917","87973","645256","2920","77677","649467","650321","646259","649467","NA","Sternberg Task ","100","82530","104","yes","1024"
"95.23809523809524","95.23809523809524","805.0571428571428","805.0571428571428","black","experiment","legacy","legacy","legacy","0","uniform","0","undefined","0","right","104","104","0","104","104","0","0","104","0","0","104","104","104","104","0","Mon Oct 12 12:55:14 2020","The main experiment item","yes","SternbergTask.osexp","C:\Users\Owner","no","mono","no","18","no","white","no","yes","768","legacy","92","11","C:/Users/Owner/SMPsubject-2.csv","legacy","2 8 6 3 1","Lentiform Loewenfeld","3.3.3","0","n","yes","0","None","right","right","None","NA","2001","1546","10295","2001","NA","2","legacy","5","1024","2","48000","-16","experiment","2","even","7","653640","650324","4467","644160","651434","2917","87973","651435","2920","77677","655644","657645","652436","655644","NA","Sternberg Task ","100","84531","105","yes","1024"
"95.28301886792453","95.28301886792453","802.3301886792453","802.3301886792453","black","experiment","legacy","legacy","legacy","0","uniform","1","undefined","1","right","105","105","0","105","105","0","0","105","0","0","105","105","105","105","0","Mon Oct 12 12:55:14 2020","The main experiment item","yes","SternbergTask.osexp","C:\Users\Owner","no","mono","no","18","no","white","no","yes","768","legacy","93","11","C:/Users/Owner/SMPsubject-2.csv","legacy","5","Lentiform Loewenfeld","3.3.3","0","n","yes","0","right","right","right","right","NA","516","1546","10295","516","NA","2","legacy","1","1024","2","48000","-16","experiment","2","even","8","660967","657648","4467","644160","658757","2917","87973","658758","2920","77677","662971","663489","659763","662971","NA","Sternberg Task ","101","85047","106","yes","1024"
"95.32710280373831","95.32710280373831","804.3644859813085","804.3644859813085","black","experiment","legacy","legacy","legacy","0","uniform","1","undefined","1","left","106","106","0","106","106","0","0","106","0","0","106","106","106","106","0","Mon Oct 12 12:55:14 2020","The main experiment item","yes","SternbergTask.osexp","C:\Users\Owner","no","mono","no","18","no","white","no","yes","768","legacy","94","11","C:/Users/Owner/SMPsubject-2.csv","legacy","7 4 2 6 3 5","Lentiform Loewenfeld","3.3.3","6","y","yes","0","left","right","right","left","NA","1020","1546","10295","1020","NA","2","legacy","6","1024","2","48000","-16","experiment","2","even","5","666758","657648","4467","663492","664552","2917","87973","664553","2920","77677","668762","669783","665554","668762","NA","Sternberg Task ","102","86067","107","yes","1024"
"95.37037037037037","95.37037037037037","806.2222222222222","806.2222222222222","black","experiment","legacy","legacy","legacy","0","uniform","1","undefined","1","left","107","107","0","107","107","0","0","107","0","0","107","107","107","107","0","Mon Oct 12 12:55:14 2020","The main experiment item","yes","SternbergTask.osexp","C:\Users\Owner","no","mono","no","18","no","white","no","yes","768","legacy","95","11","C:/Users/Owner/SMPsubject-2.csv","legacy","8 5 1 3 9","Lentiform Loewenfeld","3.3.3","4","y","yes","0","left","right","right","left","NA","1005","1546","10295","1005","NA","2","legacy","5","1024","2","48000","-16","experiment","2","even","3","673102","657648","4467","669787","670895","2917","87973","670897","2920","77677","675106","676113","671900","675106","NA","Sternberg Task ","103","87072","108","yes","1024"
"95.41284403669725","95.41284403669725","803.8623853211009","803.8623853211009","black","experiment","legacy","legacy","legacy","0","uniform","1","undefined","1","right","108","108","0","108","108","0","0","108","0","0","108","108","108","108","0","Mon Oct 12 12:55:14 2020","The main experiment item","yes","SternbergTask.osexp","C:\Users\Owner","no","mono","no","18","no","white","no","yes","768","legacy","96","11","C:/Users/Owner/SMPsubject-2.csv","legacy","6 8 4","Lentiform Loewenfeld","3.3.3","0","n","yes","0","right","right","right","right","NA","549","1546","10295","549","NA","2","legacy","3","1024","2","48000","-16","experiment","2","even","1","679434","657648","4467","676117","677224","2917","87973","677226","2920","77677","681438","681989","678230","681438","NA","Sternberg Task ","104","87621","109","yes","1024"
"95.45454545454545","95.45454545454545","802.3818181818182","802.3818181818182","black","experiment","legacy","legacy","legacy","0","uniform","1","undefined","1","right","109","109","0","109","109","0","0","109","0","0","109","109","109","109","0","Mon Oct 12 12:55:14 2020","The main experiment item","yes","SternbergTask.osexp","C:\Users\Owner","no","mono","no","18","no","white","no","yes","768","legacy","97","11","C:/Users/Owner/SMPsubject-2.csv","legacy","1 6 4","Lentiform Loewenfeld","3.3.3","0","n","yes","0","right","right","right","right","NA","641","1546","10295","641","NA","2","legacy","3","1024","2","48000","-16","experiment","2","even","7","685315","657648","4467","681993","683106","2917","87973","683107","2920","77677","687319","687961","684111","687318","NA","Sternberg Task ","105","88262","110","yes","1024"
"95.49549549549549","95.49549549549549","803.1621621621622","803.1621621621622","black","experiment","legacy","legacy","legacy","0","uniform","1","undefined","1","right","110","110","0","110","110","0","0","110","0","0","110","110","110","110","0","Mon Oct 12 12:55:14 2020","The main experiment item","yes","SternbergTask.osexp","C:\Users\Owner","no","mono","no","18","no","white","no","yes","768","legacy","98","11","C:/Users/Owner/SMPsubject-2.csv","legacy","7 1 5 6 3","Lentiform Loewenfeld","3.3.3","0","n","yes","0","right","right","right","right","NA","889","1546","10295","889","NA","2","legacy","5","1024","2","48000","-16","experiment","2","even","8","691274","657648","4467","687964","689064","2917","87973","689066","2920","77677","693278","694169","690070","693278","NA","Sternberg Task ","106","89151","111","yes","1024"
"95.53571428571429","95.53571428571429","802.2410714285714","802.2410714285714","black","experiment","legacy","legacy","legacy","0","uniform","1","undefined","1","left","111","111","0","111","111","0","0","111","0","0","111","111","111","111","0","Mon Oct 12 12:55:14 2020","The main experiment item","yes","SternbergTask.osexp","C:\Users\Owner","no","mono","no","18","no","white","no","yes","768","legacy","99","11","C:/Users/Owner/SMPsubject-2.csv","legacy","4","Lentiform Loewenfeld","3.3.3","1","y","yes","0","left","right","right","left","NA","700","1546","10295","700","NA","2","legacy","1","1024","2","48000","-16","experiment","2","even","4","697491","657648","4467","694173","695281","2917","87973","695283","2920","77677","699495","700196","696287","699495","NA","Sternberg Task ","107","89851","112","yes","1024"
"94.69026548672566","94.69026548672566","800.5575221238938","800.5575221238938","black","experiment","legacy","legacy","legacy","0","uniform","0","undefined","0","left","112","112","0","112","112","0","0","112","0","0","112","112","112","112","0","Mon Oct 12 12:55:14 2020","The main experiment item","yes","SternbergTask.osexp","C:\Users\Owner","no","mono","no","18","no","white","no","yes","768","legacy","100","11","C:/Users/Owner/SMPsubject-2.csv","legacy","5 2 6","Lentiform Loewenfeld","3.3.3","2","y","yes","0","right","right","right","right","NA","612","1546","10295","612","NA","2","legacy","3","1024","2","48000","-16","experiment","2","even","2","703519","657648","4467","700200","701310","2917","87973","701311","2920","77677","705523","706136","702315","705523","NA","Sternberg Task ","107","90463","113","yes","1024"
"94.73684210526316","94.73684210526316","800.1754385964912","800.1754385964912","black","experiment","legacy","legacy","legacy","0","uniform","1","undefined","1","right","113","113","0","113","113","0","0","113","0","0","113","113","113","113","0","Mon Oct 12 12:55:14 2020","The main experiment item","yes","SternbergTask.osexp","C:\Users\Owner","no","mono","no","18","no","white","no","yes","768","legacy","101","11","C:/Users/Owner/SMPsubject-2.csv","legacy","5 3 8 7 2 4","Lentiform Loewenfeld","3.3.3","0","n","yes","0","right","right","right","right","NA","757","1546","10295","757","NA","2","legacy","6","1024","2","48000","-16","experiment","2","even","9","709465","706139","4467","700200","707257","2917","87973","707258","2920","77677","711469","712228","708262","711469","NA","Sternberg Task ","108","91220","114","yes","1024"
"94.78260869565217","94.78260869565217","798.1739130434783","798.1739130434783","black","experiment","legacy","legacy","legacy","0","uniform","1","undefined","1","right","114","114","0","114","114","0","0","114","0","0","114","114","114","114","0","Mon Oct 12 12:55:14 2020","The main experiment item","yes","SternbergTask.osexp","C:\Users\Owner","no","mono","no","18","no","white","no","yes","768","legacy","102","11","C:/Users/Owner/SMPsubject-2.csv","legacy","6 8","Lentiform Loewenfeld","3.3.3","0","n","yes","0","right","right","right","right","NA","570","1546","10295","570","NA","2","legacy","2","1024","2","48000","-16","experiment","2","even","9","715553","706139","4467","712231","713344","2917","87973","713345","2920","77677","717557","718128","714349","717557","NA","Sternberg Task ","109","91790","115","yes","1024"
"94.82758620689656","94.82758620689656","796.3879310344828","796.3879310344828","black","experiment","legacy","legacy","legacy","0","uniform","1","undefined","1","right","115","115","0","115","115","0","0","115","0","0","115","115","115","115","0","Mon Oct 12 12:55:14 2020","The main experiment item","yes","SternbergTask.osexp","C:\Users\Owner","no","mono","no","18","no","white","no","yes","768","legacy","103","11","C:/Users/Owner/SMPsubject-2.csv","legacy","7 9","Lentiform Loewenfeld","3.3.3","0","n","yes","0","right","right","right","right","NA","591","1546","10295","591","NA","2","legacy","2","1024","2","48000","-16","experiment","2","even","1","721440","706139","4467","718131","719231","2917","87973","719233","2920","77677","723444","724036","720237","723444","NA","Sternberg Task ","110","92381","116","yes","1024"
"94.87179487179488","94.87179487179488","794.2820512820513","794.2820512820513","black","experiment","legacy","legacy","legacy","0","uniform","1","undefined","1","left","116","116","0","116","116","0","0","116","0","0","116","116","116","116","0","Mon Oct 12 12:55:14 2020","The main experiment item","yes","SternbergTask.osexp","C:\Users\Owner","no","mono","no","18","no","white","no","yes","768","legacy","104","11","C:/Users/Owner/SMPsubject-2.csv","legacy","9 5 3 8 4","Lentiform Loewenfeld","3.3.3","1","y","yes","0","left","right","right","left","NA","550","1546","10295","550","NA","2","legacy","5","1024","2","48000","-16","experiment","2","even","9","727354","706139","4467","724039","725145","2917","87973","725146","2920","77677","729359","729911","726149","729358","NA","Sternberg Task ","111","92931","117","yes","1024"
"94.91525423728814","94.91525423728814","792.3135593220339","792.3135593220339","black","experiment","legacy","legacy","legacy","0","uniform","1","undefined","1","right","117","117","0","117","117","0","0","117","0","0","117","117","117","117","0","Mon Oct 12 12:55:14 2020","The main experiment item","yes","SternbergTask.osexp","C:\Users\Owner","no","mono","no","18","no","white","no","yes","768","legacy","105","11","C:/Users/Owner/SMPsubject-2.csv","legacy","8 6 3 4 7","Lentiform Loewenfeld","3.3.3","0","n","yes","0","right","right","right","right","NA","562","1546","10295","562","NA","2","legacy","5","1024","2","48000","-16","experiment","2","even","1","733227","706139","4467","729915","731017","2917","87973","731019","2920","77677","735231","735794","732023","735231","NA","Sternberg Task ","112","93493","118","yes","1024"
"94.95798319327731","94.95798319327731","791.9243697478992","791.9243697478992","black","experiment","legacy","legacy","legacy","0","uniform","1","undefined","1","right","118","118","0","118","118","0","0","118","0","0","118","118","118","118","0","Mon Oct 12 12:55:14 2020","The main experiment item","yes","SternbergTask.osexp","C:\Users\Owner","no","mono","no","18","no","white","no","yes","768","legacy","106","11","C:/Users/Owner/SMPsubject-2.csv","legacy","1 7 5 2 9","Lentiform Loewenfeld","3.3.3","0","n","yes","0","right","right","right","right","NA","746","1546","10295","746","NA","2","legacy","5","1024","2","48000","-16","experiment","2","even","3","739121","706139","4467","735798","736912","2917","87973","736913","2920","77677","741122","741870","737917","741122","NA","Sternberg Task ","113","94239","119","yes","1024"
"95","95","790.3916666666667","790.3916666666667","black","experiment","legacy","legacy","legacy","0","uniform","1","undefined","1","left","119","119","0","119","119","0","0","119","0","0","119","119","119","119","0","Mon Oct 12 12:55:14 2020","The main experiment item","yes","SternbergTask.osexp","C:\Users\Owner","no","mono","no","18","no","white","no","yes","768","legacy","107","11","C:/Users/Owner/SMPsubject-2.csv","legacy","3 5 9 6 2 4","Lentiform Loewenfeld","3.3.3","1","y","yes","0","left","right","right","left","NA","608","1546","10295","608","NA","2","legacy","6","1024","2","48000","-16","experiment","2","even","3","745187","706139","4467","741873","742979","2917","87973","742980","2920","77677","747192","747801","743983","747192","NA","Sternberg Task ","114","94847","120","yes","1024"
"95.04132231404958","95.04132231404958","793.8429752066115","793.8429752066115","black","experiment","legacy","legacy","legacy","0","uniform","1","undefined","1","right","120","120","0","120","120","0","0","120","0","0","120","120","120","120","0","Mon Oct 12 12:55:14 2020","The main experiment item","yes","SternbergTask.osexp","C:\Users\Owner","no","mono","no","18","no","white","no","yes","768","legacy","108","11","C:/Users/Owner/SMPsubject-2.csv","legacy","7 6 4 8 1 2","Lentiform Loewenfeld","3.3.3","0","n","yes","0","right","right","right","right","NA","1208","1546","10295","1208","NA","2","legacy","6","1024","2","48000","-16","experiment","2","even","9","751126","706139","4467","747805","748917","2917","87973","748918","2920","77677","753130","754339","749922","753130","NA","Sternberg Task ","115","96055","121","yes","1024"
"95.08196721311475","95.08196721311475","792.7131147540983","792.7131147540983","black","experiment","legacy","legacy","legacy","0","uniform","1","undefined","1","right","121","121","0","121","121","0","0","121","0","0","121","121","121","121","0","Mon Oct 12 12:55:14 2020","The main experiment item","yes","SternbergTask.osexp","C:\Users\Owner","no","mono","no","18","no","white","no","yes","768","legacy","109","11","C:/Users/Owner/SMPsubject-2.csv","legacy","2 8 7 9 5 3","Lentiform Loewenfeld","3.3.3","0","n","yes","0","right","right","right","right","NA","656","1546","10295","656","NA","2","legacy","6","1024","2","48000","-16","experiment","2","even","6","757659","706139","4467","754343","755450","2917","87973","755451","2920","77677","759663","760320","756455","759663","NA","Sternberg Task ","116","96711","122","yes","1024"
