"acc","accuracy","average_response_time","avg_rt","background","block","canvas_backend","clock_backend","color_backend","compensation","coordinates","correct","correct_instruction1","correct_keyboard_response","correct_response","count_correctFeedback","count_expSequence","count_experiment","count_experimentLoop","count_fixation","count_incorrectFeedback","count_instruction1","count_instructions2","count_isi","count_keyboard_response","count_logger","count_memorySet","count_practiceloop","count_prob","count_thankYou","datetime","description","disable_garbage_collection","experiment_file","experiment_path","font_bold","font_family","font_italic","font_size","font_underline","foreground","form_clicks","fullscreen","height","keyboard_backend","live_row","live_row_practiceloop","logfile","mouse_backend","numberSet","opensesame_codename","opensesame_version","posInSet","present","repeat_cycle","response","response_instruction1","response_instructions2","response_keyboard_response","response_thankYou","response_time","response_time_instruction1","response_time_instructions2","response_time_keyboard_response","response_time_thankYou","round_decimals","sampler_backend","setSize","sound_buf_size","sound_channels","sound_freq","sound_sample_size","start","subject_nr","subject_parity","target","time_correctFeedback","time_expSequence","time_experiment","time_experimentLoop","time_fixation","time_incorrectFeedback","time_instruction1","time_instructions2","time_isi","time_keyboard_response","time_logger","time_memorySet","time_practiceloop","time_prob","time_thankYou","title","total_correct","total_response_time","total_responses","uniform_coordinates","width"
"0","0","2000","2000","black","practice","legacy","legacy","legacy","0","uniform","0","undefined","0","left","0","0","0","0","0","0","0","0","0","0","0","0","0","0","0","10/22/20 21:31:32","The main experiment item","yes","SternbergTask.osexp","C:\Users\18177\OneDrive\Documents\School\Grad School\Fall 2020\Lab 3 Sternberg Memory","no","mono","no","18","no","white","no","yes","768","legacy","0","0","C:/Users/18177/OneDrive/Documents/School/Grad School/Fall 2020/Lab 3 Sternberg Memory/subject-3.csv","legacy","6","Lentiform Loewenfeld","3.3.3","1","y","0","None","right","NA","None","NA","2000","511305","NA","2000","NA","2","legacy","1","1024","2","48000","-16","experiment","3","odd","6","NA","516537","4569","NA","516539","NA","4577","NA","518746","520750","522750","517542","515883","520750","NA","Sternberg Task","0","2000","1","yes","1024"
"50","50","1626","1626","black","practice","legacy","legacy","legacy","0","uniform","1","undefined","1","left","1","1","0","0","1","1","0","0","1","1","1","1","0","1","0","10/22/20 21:31:32","The main experiment item","yes","SternbergTask.osexp","C:\Users\18177\OneDrive\Documents\School\Grad School\Fall 2020\Lab 3 Sternberg Memory","no","mono","no","18","no","white","no","yes","768","legacy","1","1","C:/Users/18177/OneDrive/Documents/School/Grad School/Fall 2020/Lab 3 Sternberg Memory/subject-3.csv","legacy","4 8","Lentiform Loewenfeld","3.3.3","1","y","0","left","right","NA","left","NA","1252","511305","NA","1252","NA","2","legacy","2","1024","2","48000","-16","experiment","3","odd","4","NA","523880","4569","NA","523881","522799","4577","NA","526087","528088","529341","524883","515883","528088","NA","Sternberg Task","1","3252","2","yes","1024"
"66.6666666667","66.6666666667","1415.33333333","1415.33333333","black","practice","legacy","legacy","legacy","0","uniform","1","undefined","1","left","2","2","0","0","2","2","0","0","2","2","2","2","0","2","0","10/22/20 21:31:32","The main experiment item","yes","SternbergTask.osexp","C:\Users\18177\OneDrive\Documents\School\Grad School\Fall 2020\Lab 3 Sternberg Memory","no","mono","no","18","no","white","no","yes","768","legacy","2","2","C:/Users/18177/OneDrive/Documents/School/Grad School/Fall 2020/Lab 3 Sternberg Memory/subject-3.csv","legacy","1 5 2 9","Lentiform Loewenfeld","3.3.3","2","y","0","left","right","NA","left","NA","994","511305","NA","994","NA","2","legacy","4","1024","2","48000","-16","experiment","3","odd","5","529352","530414","4569","NA","530415","522799","4577","NA","532620","534621","535616","531416","515883","534621","NA","Sternberg Task","2","4246","3","yes","1024"
"75","75","1274.75","1274.75","black","practice","legacy","legacy","legacy","0","uniform","1","undefined","1","right","3","3","0","0","3","3","0","0","3","3","3","3","0","3","0","10/22/20 21:31:32","The main experiment item","yes","SternbergTask.osexp","C:\Users\18177\OneDrive\Documents\School\Grad School\Fall 2020\Lab 3 Sternberg Memory","no","mono","no","18","no","white","no","yes","768","legacy","3","3","C:/Users/18177/OneDrive/Documents/School/Grad School/Fall 2020/Lab 3 Sternberg Memory/subject-3.csv","legacy","9 6 7 4 5","Lentiform Loewenfeld","3.3.3","0","n","0","right","right","NA","right","NA","853","511305","NA","853","NA","2","legacy","5","1024","2","48000","-16","experiment","3","odd","3","535629","536688","4569","NA","536689","522799","4577","NA","538894","540895","541748","537690","515883","540895","NA","Sternberg Task","3","5099","4","yes","1024"
"80","80","1223","1223","black","practice","legacy","legacy","legacy","0","uniform","1","undefined","1","right","4","4","0","0","4","4","0","0","4","4","4","4","0","4","0","10/22/20 21:31:32","The main experiment item","yes","SternbergTask.osexp","C:\Users\18177\OneDrive\Documents\School\Grad School\Fall 2020\Lab 3 Sternberg Memory","no","mono","no","18","no","white","no","yes","768","legacy","4","4","C:/Users/18177/OneDrive/Documents/School/Grad School/Fall 2020/Lab 3 Sternberg Memory/subject-3.csv","legacy","3 1 9 4","Lentiform Loewenfeld","3.3.3","0","n","0","right","right","NA","right","NA","1016","511305","NA","1016","NA","2","legacy","4","1024","2","48000","-16","experiment","3","odd","6","541761","542818","4569","NA","542819","522799","4577","NA","545024","547025","548042","543820","515883","547025","NA","Sternberg Task","4","6115","5","yes","1024"
"83.3333333333","83.3333333333","1201.33333333","1201.33333333","black","practice","legacy","legacy","legacy","0","uniform","1","undefined","1","right","5","5","0","0","5","5","0","0","5","5","5","5","0","5","0","10/22/20 21:31:32","The main experiment item","yes","SternbergTask.osexp","C:\Users\18177\OneDrive\Documents\School\Grad School\Fall 2020\Lab 3 Sternberg Memory","no","mono","no","18","no","white","no","yes","768","legacy","5","5","C:/Users/18177/OneDrive/Documents/School/Grad School/Fall 2020/Lab 3 Sternberg Memory/subject-3.csv","legacy","2 1","Lentiform Loewenfeld","3.3.3","0","n","0","right","right","NA","right","NA","1093","511305","NA","1093","NA","2","legacy","2","1024","2","48000","-16","experiment","3","odd","5","548054","549112","4569","NA","549113","522799","4577","NA","551320","553321","554415","550116","515883","553321","NA","Sternberg Task","5","7208","6","yes","1024"
"85.7142857143","85.7142857143","1207.71428571","1207.71428571","black","practice","legacy","legacy","legacy","0","uniform","1","undefined","1","left","6","6","0","0","6","6","0","0","6","6","6","6","0","6","0","10/22/20 21:31:32","The main experiment item","yes","SternbergTask.osexp","C:\Users\18177\OneDrive\Documents\School\Grad School\Fall 2020\Lab 3 Sternberg Memory","no","mono","no","18","no","white","no","yes","768","legacy","6","6","C:/Users/18177/OneDrive/Documents/School/Grad School/Fall 2020/Lab 3 Sternberg Memory/subject-3.csv","legacy","2 9 4","Lentiform Loewenfeld","3.3.3","3","y","0","left","right","NA","left","NA","1246","511305","NA","1246","NA","2","legacy","3","1024","2","48000","-16","experiment","3","odd","4","554427","555485","4569","NA","555486","522799","4577","NA","557690","559692","560939","556487","515883","559691","NA","Sternberg Task","6","8454","7","yes","1024"
"75","75","1236.125","1236.125","black","practice","legacy","legacy","legacy","0","uniform","0","undefined","0","left","7","7","0","0","7","7","0","0","7","7","7","7","0","7","0","10/22/20 21:31:32","The main experiment item","yes","SternbergTask.osexp","C:\Users\18177\OneDrive\Documents\School\Grad School\Fall 2020\Lab 3 Sternberg Memory","no","mono","no","18","no","white","no","yes","768","legacy","7","7","C:/Users/18177/OneDrive/Documents/School/Grad School/Fall 2020/Lab 3 Sternberg Memory/subject-3.csv","legacy","1 7 9 8 5","Lentiform Loewenfeld","3.3.3","4","y","0","right","right","NA","right","NA","1435","511305","NA","1435","NA","2","legacy","5","1024","2","48000","-16","experiment","3","odd","8","560952","562009","4569","NA","562011","522799","4577","NA","564216","566217","567653","563012","515883","566217","NA","Sternberg Task","6","9889","8","yes","1024"
"77.7777777778","77.7777777778","1259.33333333","1259.33333333","black","practice","legacy","legacy","legacy","0","uniform","1","undefined","1","right","8","8","0","0","8","8","0","0","8","8","8","8","0","8","0","10/22/20 21:31:32","The main experiment item","yes","SternbergTask.osexp","C:\Users\18177\OneDrive\Documents\School\Grad School\Fall 2020\Lab 3 Sternberg Memory","no","mono","no","18","no","white","no","yes","768","legacy","8","8","C:/Users/18177/OneDrive/Documents/School/Grad School/Fall 2020/Lab 3 Sternberg Memory/subject-3.csv","legacy","5","Lentiform Loewenfeld","3.3.3","0","n","0","right","right","NA","right","NA","1445","511305","NA","1445","NA","2","legacy","1","1024","2","48000","-16","experiment","3","odd","3","560952","568725","4569","NA","568727","567666","4577","NA","570931","572932","574377","569728","515883","572932","NA","Sternberg Task","7","11334","9","yes","1024"
"80","80","1258.6","1258.6","black","practice","legacy","legacy","legacy","0","uniform","1","undefined","1","right","9","9","0","0","9","9","0","0","9","9","9","9","0","9","0","10/22/20 21:31:32","The main experiment item","yes","SternbergTask.osexp","C:\Users\18177\OneDrive\Documents\School\Grad School\Fall 2020\Lab 3 Sternberg Memory","no","mono","no","18","no","white","no","yes","768","legacy","9","9","C:/Users/18177/OneDrive/Documents/School/Grad School/Fall 2020/Lab 3 Sternberg Memory/subject-3.csv","legacy","4 1 5","Lentiform Loewenfeld","3.3.3","0","n","0","right","right","NA","right","NA","1252","511305","NA","1252","NA","2","legacy","3","1024","2","48000","-16","experiment","3","odd","2","574389","575446","4569","NA","575447","567666","4577","NA","577655","579656","580908","576450","515883","579656","NA","Sternberg Task","8","12586","10","yes","1024"
"81.8181818182","81.8181818182","1275.90909091","1275.90909091","black","practice","legacy","legacy","legacy","0","uniform","1","undefined","1","left","10","10","0","0","10","10","0","0","10","10","10","10","0","10","0","10/22/20 21:31:32","The main experiment item","yes","SternbergTask.osexp","C:\Users\18177\OneDrive\Documents\School\Grad School\Fall 2020\Lab 3 Sternberg Memory","no","mono","no","18","no","white","no","yes","768","legacy","10","10","C:/Users/18177/OneDrive/Documents/School/Grad School/Fall 2020/Lab 3 Sternberg Memory/subject-3.csv","legacy","4 3 1 7 9 8","Lentiform Loewenfeld","3.3.3","1","y","0","left","right","NA","left","NA","1449","511305","NA","1449","NA","2","legacy","6","1024","2","48000","-16","experiment","3","odd","4","580920","581977","4569","NA","581979","567666","4577","NA","584184","586185","587635","582980","515883","586185","NA","Sternberg Task","9","14035","11","yes","1024"
"83.3333333333","83.3333333333","1288.41666667","1288.41666667","black","practice","legacy","legacy","legacy","0","uniform","1","undefined","1","right","11","11","0","0","11","11","0","0","11","11","11","11","0","11","0","10/22/20 21:31:32","The main experiment item","yes","SternbergTask.osexp","C:\Users\18177\OneDrive\Documents\School\Grad School\Fall 2020\Lab 3 Sternberg Memory","no","mono","no","18","no","white","no","yes","768","legacy","11","11","C:/Users/18177/OneDrive/Documents/School/Grad School/Fall 2020/Lab 3 Sternberg Memory/subject-3.csv","legacy","5 7 8 4 1 2","Lentiform Loewenfeld","3.3.3","0","n","0","right","right","NA","right","NA","1426","511305","NA","1426","NA","2","legacy","6","1024","2","48000","-16","experiment","3","odd","6","587647","588706","4569","NA","588708","567666","4577","NA","590912","592913","594341","589709","515883","592913","NA","Sternberg Task","10","15461","12","yes","1024"
"84.6153846154","84.6153846154","1263","1263","black","experiment","legacy","legacy","legacy","0","uniform","1","undefined","1","left","12","12","0","0","12","12","0","0","12","12","12","12","0","12","0","10/22/20 21:31:32","The main experiment item","yes","SternbergTask.osexp","C:\Users\18177\OneDrive\Documents\School\Grad School\Fall 2020\Lab 3 Sternberg Memory","no","mono","no","18","no","white","no","yes","768","legacy","0","11","C:/Users/18177/OneDrive/Documents/School/Grad School/Fall 2020/Lab 3 Sternberg Memory/subject-3.csv","legacy","5 2 6","Lentiform Loewenfeld","3.3.3","2","y","0","left","right","right","left","NA","958","511305","5323","958","NA","2","legacy","3","1024","2","48000","-16","experiment","3","odd","2","594354","600760","4569","600691","600761","567666","4577","595367","602966","604967","605926","601762","515883","604967","NA","Sternberg Task","11","16419","13","yes","1024"
"85.7142857143","85.7142857143","1261.5","1261.5","black","experiment","legacy","legacy","legacy","0","uniform","1","undefined","1","right","13","13","0","0","13","13","0","0","13","13","13","13","0","13","0","10/22/20 21:31:32","The main experiment item","yes","SternbergTask.osexp","C:\Users\18177\OneDrive\Documents\School\Grad School\Fall 2020\Lab 3 Sternberg Memory","no","mono","no","18","no","white","no","yes","768","legacy","1","11","C:/Users/18177/OneDrive/Documents/School/Grad School/Fall 2020/Lab 3 Sternberg Memory/subject-3.csv","legacy","6 9 7 3 8 2","Lentiform Loewenfeld","3.3.3","0","n","0","right","right","right","right","NA","1242","511305","5323","1242","NA","2","legacy","6","1024","2","48000","-16","experiment","3","odd","5","605939","606997","4569","600691","606999","567666","4577","595367","609204","611206","612448","608000","515883","611206","NA","Sternberg Task","12","17661","14","yes","1024"
"86.6666666667","86.6666666667","1254.53333333","1254.53333333","black","experiment","legacy","legacy","legacy","0","uniform","1","undefined","1","left","14","14","0","0","14","14","0","0","14","14","14","14","0","14","0","10/22/20 21:31:32","The main experiment item","yes","SternbergTask.osexp","C:\Users\18177\OneDrive\Documents\School\Grad School\Fall 2020\Lab 3 Sternberg Memory","no","mono","no","18","no","white","no","yes","768","legacy","2","11","C:/Users/18177/OneDrive/Documents/School/Grad School/Fall 2020/Lab 3 Sternberg Memory/subject-3.csv","legacy","7 8 4 6 9 5","Lentiform Loewenfeld","3.3.3","4","y","0","left","right","right","left","NA","1157","511305","5323","1157","NA","2","legacy","6","1024","2","48000","-16","experiment","3","odd","6","612460","613517","4569","600691","613518","567666","4577","595367","615723","617724","618882","614519","515883","617724","NA","Sternberg Task","13","18818","15","yes","1024"
"87.5","87.5","1235.3125","1235.3125","black","experiment","legacy","legacy","legacy","0","uniform","1","undefined","1","left","15","15","0","0","15","15","0","0","15","15","15","15","0","15","0","10/22/20 21:31:32","The main experiment item","yes","SternbergTask.osexp","C:\Users\18177\OneDrive\Documents\School\Grad School\Fall 2020\Lab 3 Sternberg Memory","no","mono","no","18","no","white","no","yes","768","legacy","3","11","C:/Users/18177/OneDrive/Documents/School/Grad School/Fall 2020/Lab 3 Sternberg Memory/subject-3.csv","legacy","8 7 3","Lentiform Loewenfeld","3.3.3","1","y","0","left","right","right","left","NA","947","511305","5323","947","NA","2","legacy","3","1024","2","48000","-16","experiment","3","odd","8","618894","619950","4569","600691","619952","567666","4577","595367","622155","624156","625103","620953","515883","624156","NA","Sternberg Task","14","19765","16","yes","1024"
"88.2352941176","88.2352941176","1221.58823529","1221.58823529","black","experiment","legacy","legacy","legacy","0","uniform","1","undefined","1","left","16","16","0","0","16","16","0","0","16","16","16","16","0","16","0","10/22/20 21:31:32","The main experiment item","yes","SternbergTask.osexp","C:\Users\18177\OneDrive\Documents\School\Grad School\Fall 2020\Lab 3 Sternberg Memory","no","mono","no","18","no","white","no","yes","768","legacy","4","11","C:/Users/18177/OneDrive/Documents/School/Grad School/Fall 2020/Lab 3 Sternberg Memory/subject-3.csv","legacy","5 2 9 6 1 7","Lentiform Loewenfeld","3.3.3","3","y","0","left","right","right","left","NA","1002","511305","5323","1002","NA","2","legacy","6","1024","2","48000","-16","experiment","3","odd","9","625115","626174","4569","600691","626176","567666","4577","595367","628380","630381","631384","627178","515883","630381","NA","Sternberg Task","15","20767","17","yes","1024"
"88.8888888889","88.8888888889","1201.72222222","1201.72222222","black","experiment","legacy","legacy","legacy","0","uniform","1","undefined","1","left","17","17","0","0","17","17","0","0","17","17","17","17","0","17","0","10/22/20 21:31:32","The main experiment item","yes","SternbergTask.osexp","C:\Users\18177\OneDrive\Documents\School\Grad School\Fall 2020\Lab 3 Sternberg Memory","no","mono","no","18","no","white","no","yes","768","legacy","5","11","C:/Users/18177/OneDrive/Documents/School/Grad School/Fall 2020/Lab 3 Sternberg Memory/subject-3.csv","legacy","2 5 4 8 7","Lentiform Loewenfeld","3.3.3","3","y","0","left","right","right","left","NA","864","511305","5323","864","NA","2","legacy","5","1024","2","48000","-16","experiment","3","odd","4","631398","632455","4569","600691","632456","567666","4577","595367","634661","636662","637527","633459","515883","636662","NA","Sternberg Task","16","21631","18","yes","1024"
"89.4736842105","89.4736842105","1186.94736842","1186.94736842","black","experiment","legacy","legacy","legacy","0","uniform","1","undefined","1","right","18","18","0","0","18","18","0","0","18","18","18","18","0","18","0","10/22/20 21:31:32","The main experiment item","yes","SternbergTask.osexp","C:\Users\18177\OneDrive\Documents\School\Grad School\Fall 2020\Lab 3 Sternberg Memory","no","mono","no","18","no","white","no","yes","768","legacy","6","11","C:/Users/18177/OneDrive/Documents/School/Grad School/Fall 2020/Lab 3 Sternberg Memory/subject-3.csv","legacy","1 3 2 6 9","Lentiform Loewenfeld","3.3.3","0","n","0","right","right","right","right","NA","921","511305","5323","921","NA","2","legacy","5","1024","2","48000","-16","experiment","3","odd","5","637539","638595","4569","600691","638596","567666","4577","595367","640801","642802","643724","639599","515883","642802","NA","Sternberg Task","17","22552","19","yes","1024"
"90","90","1186.3","1186.3","black","experiment","legacy","legacy","legacy","0","uniform","1","undefined","1","right","19","19","0","0","19","19","0","0","19","19","19","19","0","19","0","10/22/20 21:31:32","The main experiment item","yes","SternbergTask.osexp","C:\Users\18177\OneDrive\Documents\School\Grad School\Fall 2020\Lab 3 Sternberg Memory","no","mono","no","18","no","white","no","yes","768","legacy","7","11","C:/Users/18177/OneDrive/Documents/School/Grad School/Fall 2020/Lab 3 Sternberg Memory/subject-3.csv","legacy","6 3 1 7 9 8","Lentiform Loewenfeld","3.3.3","0","n","0","right","right","right","right","NA","1174","511305","5323","1174","NA","2","legacy","6","1024","2","48000","-16","experiment","3","odd","4","643736","644794","4569","600691","644796","567666","4577","595367","647002","649003","650178","645797","515883","649003","NA","Sternberg Task","18","23726","20","yes","1024"
"90.4761904762","90.4761904762","1181.85714286","1181.85714286","black","experiment","legacy","legacy","legacy","0","uniform","1","undefined","1","right","20","20","0","0","20","20","0","0","20","20","20","20","0","20","0","10/22/20 21:31:32","The main experiment item","yes","SternbergTask.osexp","C:\Users\18177\OneDrive\Documents\School\Grad School\Fall 2020\Lab 3 Sternberg Memory","no","mono","no","18","no","white","no","yes","768","legacy","8","11","C:/Users/18177/OneDrive/Documents/School/Grad School/Fall 2020/Lab 3 Sternberg Memory/subject-3.csv","legacy","4 1","Lentiform Loewenfeld","3.3.3","0","n","0","right","right","right","right","NA","1093","511305","5323","1093","NA","2","legacy","2","1024","2","48000","-16","experiment","3","odd","6","650190","651247","4569","600691","651248","567666","4577","595367","653455","655456","656550","652251","515883","655456","NA","Sternberg Task","19","24819","21","yes","1024"
"86.3636363636","86.3636363636","1184.54545455","1184.54545455","black","experiment","legacy","legacy","legacy","0","uniform","0","undefined","0","left","21","21","0","0","21","21","0","0","21","21","21","21","0","21","0","10/22/20 21:31:32","The main experiment item","yes","SternbergTask.osexp","C:\Users\18177\OneDrive\Documents\School\Grad School\Fall 2020\Lab 3 Sternberg Memory","no","mono","no","18","no","white","no","yes","768","legacy","9","11","C:/Users/18177/OneDrive/Documents/School/Grad School/Fall 2020/Lab 3 Sternberg Memory/subject-3.csv","legacy","8 5 3 7 4 6","Lentiform Loewenfeld","3.3.3","6","y","0","right","right","right","right","NA","1241","511305","5323","1241","NA","2","legacy","6","1024","2","48000","-16","experiment","3","odd","6","656554","657611","4569","600691","657613","567666","4577","595367","659815","661817","663059","658614","515883","661817","NA","Sternberg Task","19","26060","22","yes","1024"
"86.9565217391","86.9565217391","1185.43478261","1185.43478261","black","experiment","legacy","legacy","legacy","0","uniform","1","undefined","1","right","22","22","0","0","22","22","0","0","22","22","22","22","0","22","0","10/22/20 21:31:32","The main experiment item","yes","SternbergTask.osexp","C:\Users\18177\OneDrive\Documents\School\Grad School\Fall 2020\Lab 3 Sternberg Memory","no","mono","no","18","no","white","no","yes","768","legacy","10","11","C:/Users/18177/OneDrive/Documents/School/Grad School/Fall 2020/Lab 3 Sternberg Memory/subject-3.csv","legacy","6 9 4 5 2","Lentiform Loewenfeld","3.3.3","0","n","0","right","right","right","right","NA","1205","511305","5323","1205","NA","2","legacy","5","1024","2","48000","-16","experiment","3","odd","1","656554","664129","4569","600691","664130","663072","4577","595367","666337","668341","669547","665132","515883","668341","NA","Sternberg Task","20","27265","23","yes","1024"
"87.5","87.5","1178.25","1178.25","black","experiment","legacy","legacy","legacy","0","uniform","1","undefined","1","right","23","23","0","0","23","23","0","0","23","23","23","23","0","23","0","10/22/20 21:31:32","The main experiment item","yes","SternbergTask.osexp","C:\Users\18177\OneDrive\Documents\School\Grad School\Fall 2020\Lab 3 Sternberg Memory","no","mono","no","18","no","white","no","yes","768","legacy","11","11","C:/Users/18177/OneDrive/Documents/School/Grad School/Fall 2020/Lab 3 Sternberg Memory/subject-3.csv","legacy","5 7 3","Lentiform Loewenfeld","3.3.3","0","n","0","right","right","right","right","NA","1013","511305","5323","1013","NA","2","legacy","3","1024","2","48000","-16","experiment","3","odd","9","669559","670616","4569","600691","670617","663072","4577","595367","672822","674824","675838","671618","515883","674824","NA","Sternberg Task","21","28278","24","yes","1024"
"88","88","1193.92","1193.92","black","experiment","legacy","legacy","legacy","0","uniform","1","undefined","1","left","24","24","0","0","24","24","0","0","24","24","24","24","0","24","0","10/22/20 21:31:32","The main experiment item","yes","SternbergTask.osexp","C:\Users\18177\OneDrive\Documents\School\Grad School\Fall 2020\Lab 3 Sternberg Memory","no","mono","no","18","no","white","no","yes","768","legacy","12","11","C:/Users/18177/OneDrive/Documents/School/Grad School/Fall 2020/Lab 3 Sternberg Memory/subject-3.csv","legacy","7 1 8 5 6 2","Lentiform Loewenfeld","3.3.3","2","y","0","left","right","right","left","NA","1570","511305","5323","1570","NA","2","legacy","6","1024","2","48000","-16","experiment","3","odd","1","675850","676906","4569","600691","676908","663072","4577","595367","679113","681114","682684","677909","515883","681114","NA","Sternberg Task","22","29848","25","yes","1024"
"88.4615384615","88.4615384615","1205.57692308","1205.57692308","black","experiment","legacy","legacy","legacy","0","uniform","1","undefined","1","right","25","25","0","0","25","25","0","0","25","25","25","25","0","25","0","10/22/20 21:31:32","The main experiment item","yes","SternbergTask.osexp","C:\Users\18177\OneDrive\Documents\School\Grad School\Fall 2020\Lab 3 Sternberg Memory","no","mono","no","18","no","white","no","yes","768","legacy","13","11","C:/Users/18177/OneDrive/Documents/School/Grad School/Fall 2020/Lab 3 Sternberg Memory/subject-3.csv","legacy","6 9 5","Lentiform Loewenfeld","3.3.3","0","n","0","right","right","right","right","NA","1497","511305","5323","1497","NA","2","legacy","3","1024","2","48000","-16","experiment","3","odd","8","682697","683754","4569","600691","683755","663072","4577","595367","685961","687962","689460","684757","515883","687962","NA","Sternberg Task","23","31345","26","yes","1024"
"88.8888888889","88.8888888889","1206.40740741","1206.40740741","black","experiment","legacy","legacy","legacy","0","uniform","1","undefined","1","left","26","26","0","0","26","26","0","0","26","26","26","26","0","26","0","10/22/20 21:31:32","The main experiment item","yes","SternbergTask.osexp","C:\Users\18177\OneDrive\Documents\School\Grad School\Fall 2020\Lab 3 Sternberg Memory","no","mono","no","18","no","white","no","yes","768","legacy","14","11","C:/Users/18177/OneDrive/Documents/School/Grad School/Fall 2020/Lab 3 Sternberg Memory/subject-3.csv","legacy","2 3 7 4","Lentiform Loewenfeld","3.3.3","1","y","0","left","right","right","left","NA","1228","511305","5323","1228","NA","2","legacy","4","1024","2","48000","-16","experiment","3","odd","2","689471","690529","4569","600691","690530","663072","4577","595367","692737","694738","695967","691533","515883","694738","NA","Sternberg Task","24","32573","27","yes","1024"
"89.2857142857","89.2857142857","1201.03571429","1201.03571429","black","experiment","legacy","legacy","legacy","0","uniform","1","undefined","1","left","27","27","0","0","27","27","0","0","27","27","27","27","0","27","0","10/22/20 21:31:32","The main experiment item","yes","SternbergTask.osexp","C:\Users\18177\OneDrive\Documents\School\Grad School\Fall 2020\Lab 3 Sternberg Memory","no","mono","no","18","no","white","no","yes","768","legacy","15","11","C:/Users/18177/OneDrive/Documents/School/Grad School/Fall 2020/Lab 3 Sternberg Memory/subject-3.csv","legacy","3 5 9 6 2 4","Lentiform Loewenfeld","3.3.3","1","y","0","left","right","right","left","NA","1056","511305","5323","1056","NA","2","legacy","6","1024","2","48000","-16","experiment","3","odd","3","695979","697035","4569","600691","697036","663072","4577","595367","699241","701246","702303","698037","515883","701246","NA","Sternberg Task","25","33629","28","yes","1024"
"89.6551724138","89.6551724138","1210.31034483","1210.31034483","black","experiment","legacy","legacy","legacy","0","uniform","1","undefined","1","right","28","28","0","0","28","28","0","0","28","28","28","28","0","28","0","10/22/20 21:31:32","The main experiment item","yes","SternbergTask.osexp","C:\Users\18177\OneDrive\Documents\School\Grad School\Fall 2020\Lab 3 Sternberg Memory","no","mono","no","18","no","white","no","yes","768","legacy","16","11","C:/Users/18177/OneDrive/Documents/School/Grad School/Fall 2020/Lab 3 Sternberg Memory/subject-3.csv","legacy","7 1 8 4 9 3","Lentiform Loewenfeld","3.3.3","0","n","0","right","right","right","right","NA","1470","511305","5323","1470","NA","2","legacy","6","1024","2","48000","-16","experiment","3","odd","6","702315","703373","4569","600691","703374","663072","4577","595367","705579","707580","709051","704375","515883","707580","NA","Sternberg Task","26","35099","29","yes","1024"
"90","90","1217.96666667","1217.96666667","black","experiment","legacy","legacy","legacy","0","uniform","1","undefined","1","left","29","29","0","0","29","29","0","0","29","29","29","29","0","29","0","10/22/20 21:31:32","The main experiment item","yes","SternbergTask.osexp","C:\Users\18177\OneDrive\Documents\School\Grad School\Fall 2020\Lab 3 Sternberg Memory","no","mono","no","18","no","white","no","yes","768","legacy","17","11","C:/Users/18177/OneDrive/Documents/School/Grad School/Fall 2020/Lab 3 Sternberg Memory/subject-3.csv","legacy","3 4 9 6 2 9","Lentiform Loewenfeld","3.3.3","5","y","0","left","right","right","left","NA","1440","511305","5323","1440","NA","2","legacy","6","1024","2","48000","-16","experiment","3","odd","2","709063","710120","4569","600691","710122","663072","4577","595367","712328","714329","715770","711123","515883","714329","NA","Sternberg Task","27","36539","30","yes","1024"
"90.3225806452","90.3225806452","1221","1221","black","experiment","legacy","legacy","legacy","0","uniform","1","undefined","1","left","30","30","0","0","30","30","0","0","30","30","30","30","0","30","0","10/22/20 21:31:32","The main experiment item","yes","SternbergTask.osexp","C:\Users\18177\OneDrive\Documents\School\Grad School\Fall 2020\Lab 3 Sternberg Memory","no","mono","no","18","no","white","no","yes","768","legacy","18","11","C:/Users/18177/OneDrive/Documents/School/Grad School/Fall 2020/Lab 3 Sternberg Memory/subject-3.csv","legacy","8 5 1 3 9","Lentiform Loewenfeld","3.3.3","4","y","0","left","right","right","left","NA","1312","511305","5323","1312","NA","2","legacy","5","1024","2","48000","-16","experiment","3","odd","3","715781","716838","4569","600691","716840","663072","4577","595367","719046","721047","722360","717841","515883","721047","NA","Sternberg Task","28","37851","31","yes","1024"
"90.625","90.625","1212.53125","1212.53125","black","experiment","legacy","legacy","legacy","0","uniform","1","undefined","1","right","31","31","0","0","31","31","0","0","31","31","31","31","0","31","0","10/22/20 21:31:32","The main experiment item","yes","SternbergTask.osexp","C:\Users\18177\OneDrive\Documents\School\Grad School\Fall 2020\Lab 3 Sternberg Memory","no","mono","no","18","no","white","no","yes","768","legacy","19","11","C:/Users/18177/OneDrive/Documents/School/Grad School/Fall 2020/Lab 3 Sternberg Memory/subject-3.csv","legacy","4 8 1 2","Lentiform Loewenfeld","3.3.3","0","n","0","right","right","right","right","NA","950","511305","5323","950","NA","2","legacy","4","1024","2","48000","-16","experiment","3","odd","7","722373","723439","4569","600691","723441","663072","4577","595367","725649","727653","728604","724445","515883","727653","NA","Sternberg Task","29","38801","32","yes","1024"
"90.9090909091","90.9090909091","1211.33333333","1211.33333333","black","experiment","legacy","legacy","legacy","0","uniform","1","undefined","1","right","32","32","0","0","32","32","0","0","32","32","32","32","0","32","0","10/22/20 21:31:32","The main experiment item","yes","SternbergTask.osexp","C:\Users\18177\OneDrive\Documents\School\Grad School\Fall 2020\Lab 3 Sternberg Memory","no","mono","no","18","no","white","no","yes","768","legacy","20","11","C:/Users/18177/OneDrive/Documents/School/Grad School/Fall 2020/Lab 3 Sternberg Memory/subject-3.csv","legacy","2 8 9","Lentiform Loewenfeld","3.3.3","0","n","0","right","right","right","right","NA","1173","511305","5323","1173","NA","2","legacy","3","1024","2","48000","-16","experiment","3","odd","6","728616","729673","4569","600691","729674","663072","4577","595367","731879","733880","735054","730676","515883","733880","NA","Sternberg Task","30","39974","33","yes","1024"
"91.1764705882","91.1764705882","1210.26470588","1210.26470588","black","experiment","legacy","legacy","legacy","0","uniform","1","undefined","1","left","33","33","0","0","33","33","0","0","33","33","33","33","0","33","0","10/22/20 21:31:32","The main experiment item","yes","SternbergTask.osexp","C:\Users\18177\OneDrive\Documents\School\Grad School\Fall 2020\Lab 3 Sternberg Memory","no","mono","no","18","no","white","no","yes","768","legacy","21","11","C:/Users/18177/OneDrive/Documents/School/Grad School/Fall 2020/Lab 3 Sternberg Memory/subject-3.csv","legacy","8 1 6","Lentiform Loewenfeld","3.3.3","3","y","0","left","right","right","left","NA","1175","511305","5323","1175","NA","2","legacy","3","1024","2","48000","-16","experiment","3","odd","6","735066","736131","4569","600691","736132","663072","4577","595367","738338","740339","741515","737133","515883","740339","NA","Sternberg Task","31","41149","34","yes","1024"
"91.4285714286","91.4285714286","1206.34285714","1206.34285714","black","experiment","legacy","legacy","legacy","0","uniform","1","undefined","1","left","34","34","0","0","34","34","0","0","34","34","34","34","0","34","0","10/22/20 21:31:32","The main experiment item","yes","SternbergTask.osexp","C:\Users\18177\OneDrive\Documents\School\Grad School\Fall 2020\Lab 3 Sternberg Memory","no","mono","no","18","no","white","no","yes","768","legacy","22","11","C:/Users/18177/OneDrive/Documents/School/Grad School/Fall 2020/Lab 3 Sternberg Memory/subject-3.csv","legacy","6 9 3 1","Lentiform Loewenfeld","3.3.3","4","y","0","left","right","right","left","NA","1073","511305","5323","1073","NA","2","legacy","4","1024","2","48000","-16","experiment","3","odd","1","741528","742585","4569","600691","742587","663072","4577","595367","744789","746790","747864","743588","515883","746790","NA","Sternberg Task","32","42222","35","yes","1024"
"91.6666666667","91.6666666667","1202.05555556","1202.05555556","black","experiment","legacy","legacy","legacy","0","uniform","1","undefined","1","left","35","35","0","0","35","35","0","0","35","35","35","35","0","35","0","10/22/20 21:31:32","The main experiment item","yes","SternbergTask.osexp","C:\Users\18177\OneDrive\Documents\School\Grad School\Fall 2020\Lab 3 Sternberg Memory","no","mono","no","18","no","white","no","yes","768","legacy","23","11","C:/Users/18177/OneDrive/Documents/School/Grad School/Fall 2020/Lab 3 Sternberg Memory/subject-3.csv","legacy","8","Lentiform Loewenfeld","3.3.3","1","y","0","left","right","right","left","NA","1052","511305","5323","1052","NA","2","legacy","1","1024","2","48000","-16","experiment","3","odd","8","747877","748933","4569","600691","748935","663072","4577","595367","751138","753142","754195","749936","515883","753142","NA","Sternberg Task","33","43274","36","yes","1024"
"91.8918918919","91.8918918919","1200","1200","black","experiment","legacy","legacy","legacy","0","uniform","1","undefined","1","left","36","36","0","0","36","36","0","0","36","36","36","36","0","36","0","10/22/20 21:31:32","The main experiment item","yes","SternbergTask.osexp","C:\Users\18177\OneDrive\Documents\School\Grad School\Fall 2020\Lab 3 Sternberg Memory","no","mono","no","18","no","white","no","yes","768","legacy","24","11","C:/Users/18177/OneDrive/Documents/School/Grad School/Fall 2020/Lab 3 Sternberg Memory/subject-3.csv","legacy","8 5 4 7 3 1","Lentiform Loewenfeld","3.3.3","2","y","0","left","right","right","left","NA","1126","511305","5323","1126","NA","2","legacy","6","1024","2","48000","-16","experiment","3","odd","5","754207","755267","4569","600691","755268","663072","4577","595367","757474","759477","760604","756270","515883","759476","NA","Sternberg Task","34","44400","37","yes","1024"
"92.1052631579","92.1052631579","1192.23684211","1192.23684211","black","experiment","legacy","legacy","legacy","0","uniform","1","undefined","1","left","37","37","0","0","37","37","0","0","37","37","37","37","0","37","0","10/22/20 21:31:32","The main experiment item","yes","SternbergTask.osexp","C:\Users\18177\OneDrive\Documents\School\Grad School\Fall 2020\Lab 3 Sternberg Memory","no","mono","no","18","no","white","no","yes","768","legacy","25","11","C:/Users/18177/OneDrive/Documents/School/Grad School/Fall 2020/Lab 3 Sternberg Memory/subject-3.csv","legacy","9 8 4","Lentiform Loewenfeld","3.3.3","1","y","0","left","right","right","left","NA","905","511305","5323","905","NA","2","legacy","3","1024","2","48000","-16","experiment","3","odd","9","760615","761671","4569","600691","761673","663072","4577","595367","763880","765882","766788","762677","515883","765882","NA","Sternberg Task","35","45305","38","yes","1024"
"92.3076923077","92.3076923077","1191.76923077","1191.76923077","black","experiment","legacy","legacy","legacy","0","uniform","1","undefined","1","right","38","38","0","0","38","38","0","0","38","38","38","38","0","38","0","10/22/20 21:31:32","The main experiment item","yes","SternbergTask.osexp","C:\Users\18177\OneDrive\Documents\School\Grad School\Fall 2020\Lab 3 Sternberg Memory","no","mono","no","18","no","white","no","yes","768","legacy","26","11","C:/Users/18177/OneDrive/Documents/School/Grad School/Fall 2020/Lab 3 Sternberg Memory/subject-3.csv","legacy","1 4 3 6 5","Lentiform Loewenfeld","3.3.3","0","n","0","right","right","right","right","NA","1174","511305","5323","1174","NA","2","legacy","5","1024","2","48000","-16","experiment","3","odd","8","766800","767856","4569","600691","767858","663072","4577","595367","770062","772063","773238","768859","515883","772063","NA","Sternberg Task","36","46479","39","yes","1024"
"92.5","92.5","1189.75","1189.75","black","experiment","legacy","legacy","legacy","0","uniform","1","undefined","1","left","39","39","0","0","39","39","0","0","39","39","39","39","0","39","0","10/22/20 21:31:32","The main experiment item","yes","SternbergTask.osexp","C:\Users\18177\OneDrive\Documents\School\Grad School\Fall 2020\Lab 3 Sternberg Memory","no","mono","no","18","no","white","no","yes","768","legacy","27","11","C:/Users/18177/OneDrive/Documents/School/Grad School/Fall 2020/Lab 3 Sternberg Memory/subject-3.csv","legacy","2 4 6 9","Lentiform Loewenfeld","3.3.3","3","y","0","left","right","right","left","NA","1111","511305","5323","1111","NA","2","legacy","4","1024","2","48000","-16","experiment","3","odd","6","773250","774308","4569","600691","774309","663072","4577","595367","776517","778518","779630","775313","515883","778518","NA","Sternberg Task","37","47590","40","yes","1024"
"92.6829268293","92.6829268293","1183.90243902","1183.90243902","black","experiment","legacy","legacy","legacy","0","uniform","1","undefined","1","left","40","40","0","0","40","40","0","0","40","40","40","40","0","40","0","10/22/20 21:31:32","The main experiment item","yes","SternbergTask.osexp","C:\Users\18177\OneDrive\Documents\School\Grad School\Fall 2020\Lab 3 Sternberg Memory","no","mono","no","18","no","white","no","yes","768","legacy","28","11","C:/Users/18177/OneDrive/Documents/School/Grad School/Fall 2020/Lab 3 Sternberg Memory/subject-3.csv","legacy","4 1 5","Lentiform Loewenfeld","3.3.3","2","y","0","left","right","right","left","NA","950","511305","5323","950","NA","2","legacy","3","1024","2","48000","-16","experiment","3","odd","1","779642","780699","4569","600691","780700","663072","4577","595367","782909","784910","785861","781704","515883","784910","NA","Sternberg Task","38","48540","41","yes","1024"
"92.8571428571","92.8571428571","1195.02380952","1195.02380952","black","experiment","legacy","legacy","legacy","0","uniform","1","undefined","1","right","41","41","0","0","41","41","0","0","41","41","41","41","0","41","0","10/22/20 21:31:32","The main experiment item","yes","SternbergTask.osexp","C:\Users\18177\OneDrive\Documents\School\Grad School\Fall 2020\Lab 3 Sternberg Memory","no","mono","no","18","no","white","no","yes","768","legacy","29","11","C:/Users/18177/OneDrive/Documents/School/Grad School/Fall 2020/Lab 3 Sternberg Memory/subject-3.csv","legacy","8 6 3 4 7","Lentiform Loewenfeld","3.3.3","0","n","0","right","right","right","right","NA","1651","511305","5323","1651","NA","2","legacy","5","1024","2","48000","-16","experiment","3","odd","1","785872","786929","4569","600691","786931","663072","4577","595367","789138","791139","792791","787934","515883","791139","NA","Sternberg Task","39","50191","42","yes","1024"
"93.023255814","93.023255814","1190.18604651","1190.18604651","black","experiment","legacy","legacy","legacy","0","uniform","1","undefined","1","left","42","42","0","0","42","42","0","0","42","42","42","42","0","42","0","10/22/20 21:31:32","The main experiment item","yes","SternbergTask.osexp","C:\Users\18177\OneDrive\Documents\School\Grad School\Fall 2020\Lab 3 Sternberg Memory","no","mono","no","18","no","white","no","yes","768","legacy","30","11","C:/Users/18177/OneDrive/Documents/School/Grad School/Fall 2020/Lab 3 Sternberg Memory/subject-3.csv","legacy","9 3 8 2 1 4","Lentiform Loewenfeld","3.3.3","3","y","0","left","right","right","left","NA","987","511305","5323","987","NA","2","legacy","6","1024","2","48000","-16","experiment","3","odd","8","792803","793875","4569","600691","793876","663072","4577","595367","796080","798081","799069","794877","515883","798081","NA","Sternberg Task","40","51178","43","yes","1024"
"93.1818181818","93.1818181818","1179.45454545","1179.45454545","black","experiment","legacy","legacy","legacy","0","uniform","1","undefined","1","left","43","43","0","0","43","43","0","0","43","43","43","43","0","43","0","10/22/20 21:31:32","The main experiment item","yes","SternbergTask.osexp","C:\Users\18177\OneDrive\Documents\School\Grad School\Fall 2020\Lab 3 Sternberg Memory","no","mono","no","18","no","white","no","yes","768","legacy","31","11","C:/Users/18177/OneDrive/Documents/School/Grad School/Fall 2020/Lab 3 Sternberg Memory/subject-3.csv","legacy","7","Lentiform Loewenfeld","3.3.3","1","y","0","left","right","right","left","NA","718","511305","5323","718","NA","2","legacy","1","1024","2","48000","-16","experiment","3","odd","7","799081","800148","4569","600691","800149","663072","4577","595367","802355","804360","805079","801151","515883","804360","NA","Sternberg Task","41","51896","44","yes","1024"
"93.3333333333","93.3333333333","1184.88888889","1184.88888889","black","experiment","legacy","legacy","legacy","0","uniform","1","undefined","1","right","44","44","0","0","44","44","0","0","44","44","44","44","0","44","0","10/22/20 21:31:32","The main experiment item","yes","SternbergTask.osexp","C:\Users\18177\OneDrive\Documents\School\Grad School\Fall 2020\Lab 3 Sternberg Memory","no","mono","no","18","no","white","no","yes","768","legacy","32","11","C:/Users/18177/OneDrive/Documents/School/Grad School/Fall 2020/Lab 3 Sternberg Memory/subject-3.csv","legacy","2 8 7 9 5 3","Lentiform Loewenfeld","3.3.3","0","n","0","right","right","right","right","NA","1424","511305","5323","1424","NA","2","legacy","6","1024","2","48000","-16","experiment","3","odd","6","805092","806157","4569","600691","806159","663072","4577","595367","808364","810369","811793","807160","515883","810369","NA","Sternberg Task","42","53320","45","yes","1024"
"93.4782608696","93.4782608696","1183.34782609","1183.34782609","black","experiment","legacy","legacy","legacy","0","uniform","1","undefined","1","right","45","45","0","0","45","45","0","0","45","45","45","45","0","45","0","10/22/20 21:31:32","The main experiment item","yes","SternbergTask.osexp","C:\Users\18177\OneDrive\Documents\School\Grad School\Fall 2020\Lab 3 Sternberg Memory","no","mono","no","18","no","white","no","yes","768","legacy","33","11","C:/Users/18177/OneDrive/Documents/School/Grad School/Fall 2020/Lab 3 Sternberg Memory/subject-3.csv","legacy","2 7 5","Lentiform Loewenfeld","3.3.3","0","n","0","right","right","right","right","NA","1114","511305","5323","1114","NA","2","legacy","3","1024","2","48000","-16","experiment","3","odd","8","811807","812864","4569","600691","812866","663072","4577","595367","815072","817073","818188","813867","515883","817073","NA","Sternberg Task","43","54434","46","yes","1024"
"93.6170212766","93.6170212766","1187.25531915","1187.25531915","black","experiment","legacy","legacy","legacy","0","uniform","1","undefined","1","left","46","46","0","0","46","46","0","0","46","46","46","46","0","46","0","10/22/20 21:31:32","The main experiment item","yes","SternbergTask.osexp","C:\Users\18177\OneDrive\Documents\School\Grad School\Fall 2020\Lab 3 Sternberg Memory","no","mono","no","18","no","white","no","yes","768","legacy","34","11","C:/Users/18177/OneDrive/Documents/School/Grad School/Fall 2020/Lab 3 Sternberg Memory/subject-3.csv","legacy","6 7 8 5","Lentiform Loewenfeld","3.3.3","3","y","0","left","right","right","left","NA","1367","511305","5323","1367","NA","2","legacy","4","1024","2","48000","-16","experiment","3","odd","8","818199","819256","4569","600691","819258","663072","4577","595367","821464","823465","824832","820259","515883","823465","NA","Sternberg Task","44","55801","47","yes","1024"
"93.75","93.75","1193.29166667","1193.29166667","black","experiment","legacy","legacy","legacy","0","uniform","1","undefined","1","right","47","47","0","0","47","47","0","0","47","47","47","47","0","47","0","10/22/20 21:31:32","The main experiment item","yes","SternbergTask.osexp","C:\Users\18177\OneDrive\Documents\School\Grad School\Fall 2020\Lab 3 Sternberg Memory","no","mono","no","18","no","white","no","yes","768","legacy","35","11","C:/Users/18177/OneDrive/Documents/School/Grad School/Fall 2020/Lab 3 Sternberg Memory/subject-3.csv","legacy","7 1 5 6 3","Lentiform Loewenfeld","3.3.3","0","n","0","right","right","right","right","NA","1477","511305","5323","1477","NA","2","legacy","5","1024","2","48000","-16","experiment","3","odd","8","824846","825903","4569","600691","825905","663072","4577","595367","828110","830111","831589","826906","515883","830111","NA","Sternberg Task","45","57278","48","yes","1024"
"93.8775510204","93.8775510204","1188.2244898","1188.2244898","black","experiment","legacy","legacy","legacy","0","uniform","1","undefined","1","left","48","48","0","0","48","48","0","0","48","48","48","48","0","48","0","10/22/20 21:31:32","The main experiment item","yes","SternbergTask.osexp","C:\Users\18177\OneDrive\Documents\School\Grad School\Fall 2020\Lab 3 Sternberg Memory","no","mono","no","18","no","white","no","yes","768","legacy","36","11","C:/Users/18177/OneDrive/Documents/School/Grad School/Fall 2020/Lab 3 Sternberg Memory/subject-3.csv","legacy","8 9 6 1","Lentiform Loewenfeld","3.3.3","2","y","0","left","right","right","left","NA","945","511305","5323","945","NA","2","legacy","4","1024","2","48000","-16","experiment","3","odd","9","831602","832658","4569","600691","832660","663072","4577","595367","834862","836863","837809","833661","515883","836863","NA","Sternberg Task","46","58223","49","yes","1024"
"94","94","1183.38","1183.38","black","experiment","legacy","legacy","legacy","0","uniform","1","undefined","1","left","49","49","0","0","49","49","0","0","49","49","49","49","0","49","0","10/22/20 21:31:32","The main experiment item","yes","SternbergTask.osexp","C:\Users\18177\OneDrive\Documents\School\Grad School\Fall 2020\Lab 3 Sternberg Memory","no","mono","no","18","no","white","no","yes","768","legacy","37","11","C:/Users/18177/OneDrive/Documents/School/Grad School/Fall 2020/Lab 3 Sternberg Memory/subject-3.csv","legacy","6 5","Lentiform Loewenfeld","3.3.3","2","y","0","left","right","right","left","NA","946","511305","5323","946","NA","2","legacy","2","1024","2","48000","-16","experiment","3","odd","5","837821","838906","4569","600691","838908","663072","4577","595367","841114","843118","844065","839909","515883","843118","NA","Sternberg Task","47","59169","50","yes","1024"
"94.1176470588","94.1176470588","1186.54901961","1186.54901961","black","experiment","legacy","legacy","legacy","0","uniform","1","undefined","1","right","50","50","0","0","50","50","0","0","50","50","50","50","0","50","0","10/22/20 21:31:32","The main experiment item","yes","SternbergTask.osexp","C:\Users\18177\OneDrive\Documents\School\Grad School\Fall 2020\Lab 3 Sternberg Memory","no","mono","no","18","no","white","no","yes","768","legacy","38","11","C:/Users/18177/OneDrive/Documents/School/Grad School/Fall 2020/Lab 3 Sternberg Memory/subject-3.csv","legacy","9 5 3 2 8 6","Lentiform Loewenfeld","3.3.3","0","n","0","right","right","right","right","NA","1345","511305","5323","1345","NA","2","legacy","6","1024","2","48000","-16","experiment","3","odd","7","844076","845133","4569","600691","845135","663072","4577","595367","847345","849349","850695","846139","515883","849349","NA","Sternberg Task","48","60514","51","yes","1024"
"94.2307692308","94.2307692308","1184.53846154","1184.53846154","black","experiment","legacy","legacy","legacy","0","uniform","1","undefined","1","left","51","51","0","0","51","51","0","0","51","51","51","51","0","51","0","10/22/20 21:31:32","The main experiment item","yes","SternbergTask.osexp","C:\Users\18177\OneDrive\Documents\School\Grad School\Fall 2020\Lab 3 Sternberg Memory","no","mono","no","18","no","white","no","yes","768","legacy","39","11","C:/Users/18177/OneDrive/Documents/School/Grad School/Fall 2020/Lab 3 Sternberg Memory/subject-3.csv","legacy","4 7 6 8 2 3","Lentiform Loewenfeld","3.3.3","6","y","0","left","right","right","left","NA","1082","511305","5323","1082","NA","2","legacy","6","1024","2","48000","-16","experiment","3","odd","3","850706","851763","4569","600691","851764","663072","4577","595367","853967","855968","857051","852766","515883","855968","NA","Sternberg Task","49","61596","52","yes","1024"
"94.3396226415","94.3396226415","1188.8490566","1188.8490566","black","experiment","legacy","legacy","legacy","0","uniform","1","undefined","1","left","52","52","0","0","52","52","0","0","52","52","52","52","0","52","0","10/22/20 21:31:32","The main experiment item","yes","SternbergTask.osexp","C:\Users\18177\OneDrive\Documents\School\Grad School\Fall 2020\Lab 3 Sternberg Memory","no","mono","no","18","no","white","no","yes","768","legacy","40","11","C:/Users/18177/OneDrive/Documents/School/Grad School/Fall 2020/Lab 3 Sternberg Memory/subject-3.csv","legacy","7 8 6 3 1","Lentiform Loewenfeld","3.3.3","5","y","0","left","right","right","left","NA","1413","511305","5323","1413","NA","2","legacy","5","1024","2","48000","-16","experiment","3","odd","1","857063","858120","4569","600691","858121","663072","4577","595367","860324","862326","863739","859122","515883","862326","NA","Sternberg Task","50","63009","53","yes","1024"
"94.4444444444","94.4444444444","1198.05555556","1198.05555556","black","experiment","legacy","legacy","legacy","0","uniform","1","undefined","1","right","53","53","0","0","53","53","0","0","53","53","53","53","0","53","0","10/22/20 21:31:32","The main experiment item","yes","SternbergTask.osexp","C:\Users\18177\OneDrive\Documents\School\Grad School\Fall 2020\Lab 3 Sternberg Memory","no","mono","no","18","no","white","no","yes","768","legacy","41","11","C:/Users/18177/OneDrive/Documents/School/Grad School/Fall 2020/Lab 3 Sternberg Memory/subject-3.csv","legacy","7 6 4 8 1 2","Lentiform Loewenfeld","3.3.3","0","n","0","right","right","right","right","NA","1686","511305","5323","1686","NA","2","legacy","6","1024","2","48000","-16","experiment","3","odd","9","863743","864799","4569","600691","864801","663072","4577","595367","867007","869008","870694","865802","515883","869008","NA","Sternberg Task","51","64695","54","yes","1024"
"94.5454545455","94.5454545455","1211.2","1211.2","black","experiment","legacy","legacy","legacy","0","uniform","1","undefined","1","right","54","54","0","0","54","54","0","0","54","54","54","54","0","54","0","10/22/20 21:31:32","The main experiment item","yes","SternbergTask.osexp","C:\Users\18177\OneDrive\Documents\School\Grad School\Fall 2020\Lab 3 Sternberg Memory","no","mono","no","18","no","white","no","yes","768","legacy","42","11","C:/Users/18177/OneDrive/Documents/School/Grad School/Fall 2020/Lab 3 Sternberg Memory/subject-3.csv","legacy","2 8 6 3 1","Lentiform Loewenfeld","3.3.3","0","n","0","right","right","right","right","NA","1921","511305","5323","1921","NA","2","legacy","5","1024","2","48000","-16","experiment","3","odd","7","870705","871768","4569","600691","871770","663072","4577","595367","873972","875977","877899","872771","515883","875976","NA","Sternberg Task","52","66616","55","yes","1024"
"94.6428571429","94.6428571429","1217.875","1217.875","black","experiment","legacy","legacy","legacy","0","uniform","1","undefined","1","right","55","55","0","0","55","55","0","0","55","55","55","55","0","55","0","10/22/20 21:31:32","The main experiment item","yes","SternbergTask.osexp","C:\Users\18177\OneDrive\Documents\School\Grad School\Fall 2020\Lab 3 Sternberg Memory","no","mono","no","18","no","white","no","yes","768","legacy","43","11","C:/Users/18177/OneDrive/Documents/School/Grad School/Fall 2020/Lab 3 Sternberg Memory/subject-3.csv","legacy","1 4 9 2 5","Lentiform Loewenfeld","3.3.3","0","n","0","right","right","right","right","NA","1585","511305","5323","1585","NA","2","legacy","5","1024","2","48000","-16","experiment","3","odd","7","877904","878962","4569","600691","878963","663072","4577","595367","881169","883170","884756","879964","515883","883170","NA","Sternberg Task","53","68201","56","yes","1024"
"94.7368421053","94.7368421053","1228.85964912","1228.85964912","black","experiment","legacy","legacy","legacy","0","uniform","1","undefined","1","right","56","56","0","0","56","56","0","0","56","56","56","56","0","56","0","10/22/20 21:31:32","The main experiment item","yes","SternbergTask.osexp","C:\Users\18177\OneDrive\Documents\School\Grad School\Fall 2020\Lab 3 Sternberg Memory","no","mono","no","18","no","white","no","yes","768","legacy","44","11","C:/Users/18177/OneDrive/Documents/School/Grad School/Fall 2020/Lab 3 Sternberg Memory/subject-3.csv","legacy","1 5 3 2 8","Lentiform Loewenfeld","3.3.3","0","n","0","right","right","right","right","NA","1844","511305","5323","1844","NA","2","legacy","5","1024","2","48000","-16","experiment","3","odd","4","884767","885824","4569","600691","885825","663072","4577","595367","888027","890028","891872","886826","515883","890028","NA","Sternberg Task","54","70045","57","yes","1024"
"94.8275862069","94.8275862069","1228.44827586","1228.44827586","black","experiment","legacy","legacy","legacy","0","uniform","1","undefined","1","left","57","57","0","0","57","57","0","0","57","57","57","57","0","57","0","10/22/20 21:31:32","The main experiment item","yes","SternbergTask.osexp","C:\Users\18177\OneDrive\Documents\School\Grad School\Fall 2020\Lab 3 Sternberg Memory","no","mono","no","18","no","white","no","yes","768","legacy","45","11","C:/Users/18177/OneDrive/Documents/School/Grad School/Fall 2020/Lab 3 Sternberg Memory/subject-3.csv","legacy","4 3 2 5 8","Lentiform Loewenfeld","3.3.3","2","y","0","left","right","right","left","NA","1205","511305","5323","1205","NA","2","legacy","5","1024","2","48000","-16","experiment","3","odd","3","891886","892943","4569","600691","892945","663072","4577","595367","895150","897152","898357","893946","515883","897152","NA","Sternberg Task","55","71250","58","yes","1024"
"94.9152542373","94.9152542373","1225.15254237","1225.15254237","black","experiment","legacy","legacy","legacy","0","uniform","1","undefined","1","left","58","58","0","0","58","58","0","0","58","58","58","58","0","58","0","10/22/20 21:31:32","The main experiment item","yes","SternbergTask.osexp","C:\Users\18177\OneDrive\Documents\School\Grad School\Fall 2020\Lab 3 Sternberg Memory","no","mono","no","18","no","white","no","yes","768","legacy","46","11","C:/Users/18177/OneDrive/Documents/School/Grad School/Fall 2020/Lab 3 Sternberg Memory/subject-3.csv","legacy","2 4 8 5 1 3","Lentiform Loewenfeld","3.3.3","1","y","0","left","right","right","left","NA","1034","511305","5323","1034","NA","2","legacy","6","1024","2","48000","-16","experiment","3","odd","2","898370","899427","4569","600691","899429","663072","4577","595367","901634","903635","904670","900430","515883","903635","NA","Sternberg Task","56","72284","59","yes","1024"
"95","95","1221.03333333","1221.03333333","black","experiment","legacy","legacy","legacy","0","uniform","1","undefined","1","right","59","59","0","0","59","59","0","0","59","59","59","59","0","59","0","10/22/20 21:31:32","The main experiment item","yes","SternbergTask.osexp","C:\Users\18177\OneDrive\Documents\School\Grad School\Fall 2020\Lab 3 Sternberg Memory","no","mono","no","18","no","white","no","yes","768","legacy","47","11","C:/Users/18177/OneDrive/Documents/School/Grad School/Fall 2020/Lab 3 Sternberg Memory/subject-3.csv","legacy","7 9 1 6","Lentiform Loewenfeld","3.3.3","0","n","0","right","right","right","right","NA","978","511305","5323","978","NA","2","legacy","4","1024","2","48000","-16","experiment","3","odd","4","904683","905740","4569","600691","905741","663072","4577","595367","907946","909948","910926","906742","515883","909948","NA","Sternberg Task","57","73262","60","yes","1024"
"95.0819672131","95.0819672131","1223.47540984","1223.47540984","black","experiment","legacy","legacy","legacy","0","uniform","1","undefined","1","right","60","60","0","0","60","60","0","0","60","60","60","60","0","60","0","10/22/20 21:31:32","The main experiment item","yes","SternbergTask.osexp","C:\Users\18177\OneDrive\Documents\School\Grad School\Fall 2020\Lab 3 Sternberg Memory","no","mono","no","18","no","white","no","yes","768","legacy","48","11","C:/Users/18177/OneDrive/Documents/School/Grad School/Fall 2020/Lab 3 Sternberg Memory/subject-3.csv","legacy","3 9 1","Lentiform Loewenfeld","3.3.3","0","n","0","right","right","right","right","NA","1370","511305","5323","1370","NA","2","legacy","3","1024","2","48000","-16","experiment","3","odd","7","910938","911994","4569","600691","911996","663072","4577","595367","914199","916203","917574","912997","515883","916203","NA","Sternberg Task","58","74632","61","yes","1024"
"93.5483870968","93.5483870968","1230.11290323","1230.11290323","black","experiment","legacy","legacy","legacy","0","uniform","0","undefined","0","left","61","61","0","0","61","61","0","0","61","61","61","61","0","61","0","10/22/20 21:31:32","The main experiment item","yes","SternbergTask.osexp","C:\Users\18177\OneDrive\Documents\School\Grad School\Fall 2020\Lab 3 Sternberg Memory","no","mono","no","18","no","white","no","yes","768","legacy","49","11","C:/Users/18177/OneDrive/Documents/School/Grad School/Fall 2020/Lab 3 Sternberg Memory/subject-3.csv","legacy","2 6 1 7 4","Lentiform Loewenfeld","3.3.3","2","y","0","right","right","right","right","NA","1635","511305","5323","1635","NA","2","legacy","5","1024","2","48000","-16","experiment","3","odd","6","917586","918643","4569","600691","918644","663072","4577","595367","920847","922848","924484","919645","515883","922848","NA","Sternberg Task","58","76267","62","yes","1024"
"93.6507936508","93.6507936508","1235.65079365","1235.65079365","black","experiment","legacy","legacy","legacy","0","uniform","1","undefined","1","left","62","62","0","0","62","62","0","0","62","62","62","62","0","62","0","10/22/20 21:31:32","The main experiment item","yes","SternbergTask.osexp","C:\Users\18177\OneDrive\Documents\School\Grad School\Fall 2020\Lab 3 Sternberg Memory","no","mono","no","18","no","white","no","yes","768","legacy","50","11","C:/Users/18177/OneDrive/Documents/School/Grad School/Fall 2020/Lab 3 Sternberg Memory/subject-3.csv","legacy","9 6 2 4 1","Lentiform Loewenfeld","3.3.3","4","y","0","left","right","right","left","NA","1579","511305","5323","1579","NA","2","legacy","5","1024","2","48000","-16","experiment","3","odd","4","917586","925552","4569","600691","925554","924495","4577","595367","927758","929759","931339","926556","515883","929759","NA","Sternberg Task","59","77846","63","yes","1024"
"93.75","93.75","1246.328125","1246.328125","black","experiment","legacy","legacy","legacy","0","uniform","1","undefined","1","right","63","63","0","0","63","63","0","0","63","63","63","63","0","63","0","10/22/20 21:31:32","The main experiment item","yes","SternbergTask.osexp","C:\Users\18177\OneDrive\Documents\School\Grad School\Fall 2020\Lab 3 Sternberg Memory","no","mono","no","18","no","white","no","yes","768","legacy","51","11","C:/Users/18177/OneDrive/Documents/School/Grad School/Fall 2020/Lab 3 Sternberg Memory/subject-3.csv","legacy","1 4 9 3","Lentiform Loewenfeld","3.3.3","0","n","0","right","right","right","right","NA","1919","511305","5323","1919","NA","2","legacy","4","1024","2","48000","-16","experiment","3","odd","5","931351","932408","4569","600691","932409","924495","4577","595367","934615","936616","938536","933410","515883","936616","NA","Sternberg Task","60","79765","64","yes","1024"
"93.8461538462","93.8461538462","1249.41538462","1249.41538462","black","experiment","legacy","legacy","legacy","0","uniform","1","undefined","1","right","64","64","0","0","64","64","0","0","64","64","64","64","0","64","0","10/22/20 21:31:32","The main experiment item","yes","SternbergTask.osexp","C:\Users\18177\OneDrive\Documents\School\Grad School\Fall 2020\Lab 3 Sternberg Memory","no","mono","no","18","no","white","no","yes","768","legacy","52","11","C:/Users/18177/OneDrive/Documents/School/Grad School/Fall 2020/Lab 3 Sternberg Memory/subject-3.csv","legacy","8 4 3 9","Lentiform Loewenfeld","3.3.3","0","n","0","right","right","right","right","NA","1447","511305","5323","1447","NA","2","legacy","4","1024","2","48000","-16","experiment","3","odd","5","938552","939610","4569","600691","939611","924495","4577","595367","941817","943818","945266","940615","515883","943818","NA","Sternberg Task","61","81212","65","yes","1024"
"93.9393939394","93.9393939394","1253.72727273","1253.72727273","black","experiment","legacy","legacy","legacy","0","uniform","1","undefined","1","right","65","65","0","0","65","65","0","0","65","65","65","65","0","65","0","10/22/20 21:31:32","The main experiment item","yes","SternbergTask.osexp","C:\Users\18177\OneDrive\Documents\School\Grad School\Fall 2020\Lab 3 Sternberg Memory","no","mono","no","18","no","white","no","yes","768","legacy","53","11","C:/Users/18177/OneDrive/Documents/School/Grad School/Fall 2020/Lab 3 Sternberg Memory/subject-3.csv","legacy","8 9","Lentiform Loewenfeld","3.3.3","0","n","0","right","right","right","right","NA","1534","511305","5323","1534","NA","2","legacy","2","1024","2","48000","-16","experiment","3","odd","5","945278","946341","4569","600691","946342","924495","4577","595367","948548","950553","952088","947343","515883","950552","NA","Sternberg Task","62","82746","66","yes","1024"
"94.0298507463","94.0298507463","1252.07462687","1252.07462687","black","experiment","legacy","legacy","legacy","0","uniform","1","undefined","1","right","66","66","0","0","66","66","0","0","66","66","66","66","0","66","0","10/22/20 21:31:32","The main experiment item","yes","SternbergTask.osexp","C:\Users\18177\OneDrive\Documents\School\Grad School\Fall 2020\Lab 3 Sternberg Memory","no","mono","no","18","no","white","no","yes","768","legacy","54","11","C:/Users/18177/OneDrive/Documents/School/Grad School/Fall 2020/Lab 3 Sternberg Memory/subject-3.csv","legacy","1 7 5 2","Lentiform Loewenfeld","3.3.3","0","n","0","right","right","right","right","NA","1143","511305","5323","1143","NA","2","legacy","4","1024","2","48000","-16","experiment","3","odd","3","952102","953157","4569","600691","953159","924495","4577","595367","955365","957366","958510","954161","515883","957366","NA","Sternberg Task","63","83889","67","yes","1024"
"94.1176470588","94.1176470588","1262.11764706","1262.11764706","black","experiment","legacy","legacy","legacy","0","uniform","1","undefined","1","right","67","67","0","0","67","67","0","0","67","67","67","67","0","67","0","10/22/20 21:31:32","The main experiment item","yes","SternbergTask.osexp","C:\Users\18177\OneDrive\Documents\School\Grad School\Fall 2020\Lab 3 Sternberg Memory","no","mono","no","18","no","white","no","yes","768","legacy","55","11","C:/Users/18177/OneDrive/Documents/School/Grad School/Fall 2020/Lab 3 Sternberg Memory/subject-3.csv","legacy","5 3 8 7 2 4","Lentiform Loewenfeld","3.3.3","0","n","0","right","right","right","right","NA","1935","511305","5323","1935","NA","2","legacy","6","1024","2","48000","-16","experiment","3","odd","9","958514","959572","4569","600691","959574","924495","4577","595367","961781","963782","965718","960577","515883","963782","NA","Sternberg Task","64","85824","68","yes","1024"
"94.2028985507","94.2028985507","1266.02898551","1266.02898551","black","experiment","legacy","legacy","legacy","0","uniform","1","undefined","1","right","68","68","0","0","68","68","0","0","68","68","68","68","0","68","0","10/22/20 21:31:32","The main experiment item","yes","SternbergTask.osexp","C:\Users\18177\OneDrive\Documents\School\Grad School\Fall 2020\Lab 3 Sternberg Memory","no","mono","no","18","no","white","no","yes","768","legacy","56","11","C:/Users/18177/OneDrive/Documents/School/Grad School/Fall 2020/Lab 3 Sternberg Memory/subject-3.csv","legacy","6 8","Lentiform Loewenfeld","3.3.3","0","n","0","right","right","right","right","NA","1532","511305","5323","1532","NA","2","legacy","2","1024","2","48000","-16","experiment","3","odd","9","965730","966786","4569","600691","966787","924495","4577","595367","968995","970996","972529","967791","515883","970996","NA","Sternberg Task","65","87356","69","yes","1024"
"94.2857142857","94.2857142857","1267.44285714","1267.44285714","black","experiment","legacy","legacy","legacy","0","uniform","1","undefined","1","left","69","69","0","0","69","69","0","0","69","69","69","69","0","69","0","10/22/20 21:31:32","The main experiment item","yes","SternbergTask.osexp","C:\Users\18177\OneDrive\Documents\School\Grad School\Fall 2020\Lab 3 Sternberg Memory","no","mono","no","18","no","white","no","yes","768","legacy","57","11","C:/Users/18177/OneDrive/Documents/School/Grad School/Fall 2020/Lab 3 Sternberg Memory/subject-3.csv","legacy","3 2 1 4 7","Lentiform Loewenfeld","3.3.3","2","y","0","left","right","right","left","NA","1365","511305","5323","1365","NA","2","legacy","5","1024","2","48000","-16","experiment","3","odd","2","972540","973597","4569","600691","973598","924495","4577","595367","975806","977807","979173","974602","515883","977807","NA","Sternberg Task","66","88721","70","yes","1024"
"94.3661971831","94.3661971831","1263.16901408","1263.16901408","black","experiment","legacy","legacy","legacy","0","uniform","1","undefined","1","left","70","70","0","0","70","70","0","0","70","70","70","70","0","70","0","10/22/20 21:31:32","The main experiment item","yes","SternbergTask.osexp","C:\Users\18177\OneDrive\Documents\School\Grad School\Fall 2020\Lab 3 Sternberg Memory","no","mono","no","18","no","white","no","yes","768","legacy","58","11","C:/Users/18177/OneDrive/Documents/School/Grad School/Fall 2020/Lab 3 Sternberg Memory/subject-3.csv","legacy","6 2","Lentiform Loewenfeld","3.3.3","1","y","0","left","right","right","left","NA","964","511305","5323","964","NA","2","legacy","2","1024","2","48000","-16","experiment","3","odd","6","979186","980246","4569","600691","980247","924495","4577","595367","982452","984453","985418","981248","515883","984453","NA","Sternberg Task","67","89685","71","yes","1024"
"94.4444444444","94.4444444444","1259.43055556","1259.43055556","black","experiment","legacy","legacy","legacy","0","uniform","1","undefined","1","right","71","71","0","0","71","71","0","0","71","71","71","71","0","71","0","10/22/20 21:31:32","The main experiment item","yes","SternbergTask.osexp","C:\Users\18177\OneDrive\Documents\School\Grad School\Fall 2020\Lab 3 Sternberg Memory","no","mono","no","18","no","white","no","yes","768","legacy","59","11","C:/Users/18177/OneDrive/Documents/School/Grad School/Fall 2020/Lab 3 Sternberg Memory/subject-3.csv","legacy","2 3 8 5 6 7","Lentiform Loewenfeld","3.3.3","0","n","0","right","right","right","right","NA","994","511305","5323","994","NA","2","legacy","6","1024","2","48000","-16","experiment","3","odd","1","985430","986488","4569","600691","986490","924495","4577","595367","988696","990697","991692","987491","515883","990697","NA","Sternberg Task","68","90679","72","yes","1024"
"94.5205479452","94.5205479452","1264.65753425","1264.65753425","black","experiment","legacy","legacy","legacy","0","uniform","1","undefined","1","right","72","72","0","0","72","72","0","0","72","72","72","72","0","72","0","10/22/20 21:31:32","The main experiment item","yes","SternbergTask.osexp","C:\Users\18177\OneDrive\Documents\School\Grad School\Fall 2020\Lab 3 Sternberg Memory","no","mono","no","18","no","white","no","yes","768","legacy","60","11","C:/Users/18177/OneDrive/Documents/School/Grad School/Fall 2020/Lab 3 Sternberg Memory/subject-3.csv","legacy","6 9 4 5 3 2","Lentiform Loewenfeld","3.3.3","0","n","0","right","right","right","right","NA","1641","511305","5323","1641","NA","2","legacy","6","1024","2","48000","-16","experiment","3","odd","8","991705","992764","4569","600691","992765","924495","4577","595367","994967","996968","998610","993766","515883","996968","NA","Sternberg Task","69","92320","73","yes","1024"
"94.5945945946","94.5945945946","1261.40540541","1261.40540541","black","experiment","legacy","legacy","legacy","0","uniform","1","undefined","1","right","73","73","0","0","73","73","0","0","73","73","73","73","0","73","0","10/22/20 21:31:32","The main experiment item","yes","SternbergTask.osexp","C:\Users\18177\OneDrive\Documents\School\Grad School\Fall 2020\Lab 3 Sternberg Memory","no","mono","no","18","no","white","no","yes","768","legacy","61","11","C:/Users/18177/OneDrive/Documents/School/Grad School/Fall 2020/Lab 3 Sternberg Memory/subject-3.csv","legacy","5","Lentiform Loewenfeld","3.3.3","0","n","0","right","right","right","right","NA","1024","511305","5323","1024","NA","2","legacy","1","1024","2","48000","-16","experiment","3","odd","8","998621","999687","4569","600691","999688","924495","4577","595367","1001892","1003893","1004918","1000689","515883","1003893","NA","Sternberg Task","70","93344","74","yes","1024"
"94.6666666667","94.6666666667","1259.10666667","1259.10666667","black","experiment","legacy","legacy","legacy","0","uniform","1","undefined","1","left","74","74","0","0","74","74","0","0","74","74","74","74","0","74","0","10/22/20 21:31:32","The main experiment item","yes","SternbergTask.osexp","C:\Users\18177\OneDrive\Documents\School\Grad School\Fall 2020\Lab 3 Sternberg Memory","no","mono","no","18","no","white","no","yes","768","legacy","62","11","C:/Users/18177/OneDrive/Documents/School/Grad School/Fall 2020/Lab 3 Sternberg Memory/subject-3.csv","legacy","9 5 3 8 4","Lentiform Loewenfeld","3.3.3","1","y","0","left","right","right","left","NA","1089","511305","5323","1089","NA","2","legacy","5","1024","2","48000","-16","experiment","3","odd","9","1004931","1005987","4569","600691","1005988","924495","4577","595367","1008196","1010197","1011287","1006992","515883","1010197","NA","Sternberg Task","71","94433","75","yes","1024"
"94.7368421053","94.7368421053","1258.36842105","1258.36842105","black","experiment","legacy","legacy","legacy","0","uniform","1","undefined","1","right","75","75","0","0","75","75","0","0","75","75","75","75","0","75","0","10/22/20 21:31:32","The main experiment item","yes","SternbergTask.osexp","C:\Users\18177\OneDrive\Documents\School\Grad School\Fall 2020\Lab 3 Sternberg Memory","no","mono","no","18","no","white","no","yes","768","legacy","63","11","C:/Users/18177/OneDrive/Documents/School/Grad School/Fall 2020/Lab 3 Sternberg Memory/subject-3.csv","legacy","1 6 4","Lentiform Loewenfeld","3.3.3","0","n","0","right","right","right","right","NA","1203","511305","5323","1203","NA","2","legacy","3","1024","2","48000","-16","experiment","3","odd","7","1011291","1012348","4569","600691","1012349","924495","4577","595367","1014554","1016555","1017759","1013350","515883","1016555","NA","Sternberg Task","72","95636","76","yes","1024"
"94.8051948052","94.8051948052","1259.96103896","1259.96103896","black","experiment","legacy","legacy","legacy","0","uniform","1","undefined","1","right","76","76","0","0","76","76","0","0","76","76","76","76","0","76","0","10/22/20 21:31:32","The main experiment item","yes","SternbergTask.osexp","C:\Users\18177\OneDrive\Documents\School\Grad School\Fall 2020\Lab 3 Sternberg Memory","no","mono","no","18","no","white","no","yes","768","legacy","64","11","C:/Users/18177/OneDrive/Documents/School/Grad School/Fall 2020/Lab 3 Sternberg Memory/subject-3.csv","legacy","5 9 2 3","Lentiform Loewenfeld","3.3.3","0","n","0","right","right","right","right","NA","1381","511305","5323","1381","NA","2","legacy","4","1024","2","48000","-16","experiment","3","odd","8","1017773","1018847","4569","600691","1018849","924495","4577","595367","1021051","1023052","1024434","1019850","515883","1023052","NA","Sternberg Task","73","97017","77","yes","1024"
"94.8717948718","94.8717948718","1258.76923077","1258.76923077","black","experiment","legacy","legacy","legacy","0","uniform","1","undefined","1","left","77","77","0","0","77","77","0","0","77","77","77","77","0","77","0","10/22/20 21:31:32","The main experiment item","yes","SternbergTask.osexp","C:\Users\18177\OneDrive\Documents\School\Grad School\Fall 2020\Lab 3 Sternberg Memory","no","mono","no","18","no","white","no","yes","768","legacy","65","11","C:/Users/18177/OneDrive/Documents/School/Grad School/Fall 2020/Lab 3 Sternberg Memory/subject-3.csv","legacy","3 4","Lentiform Loewenfeld","3.3.3","1","y","0","left","right","right","left","NA","1167","511305","5323","1167","NA","2","legacy","2","1024","2","48000","-16","experiment","3","odd","3","1024447","1025504","4569","600691","1025505","924495","4577","595367","1027711","1029712","1030880","1026507","515883","1029712","NA","Sternberg Task","74","98184","78","yes","1024"
"94.9367088608","94.9367088608","1254.37974684","1254.37974684","black","experiment","legacy","legacy","legacy","0","uniform","1","undefined","1","right","78","78","0","0","78","78","0","0","78","78","78","78","0","78","0","10/22/20 21:31:32","The main experiment item","yes","SternbergTask.osexp","C:\Users\18177\OneDrive\Documents\School\Grad School\Fall 2020\Lab 3 Sternberg Memory","no","mono","no","18","no","white","no","yes","768","legacy","66","11","C:/Users/18177/OneDrive/Documents/School/Grad School/Fall 2020/Lab 3 Sternberg Memory/subject-3.csv","legacy","6 8 4","Lentiform Loewenfeld","3.3.3","0","n","0","right","right","right","right","NA","912","511305","5323","912","NA","2","legacy","3","1024","2","48000","-16","experiment","3","odd","1","1030891","1031948","4569","600691","1031949","924495","4577","595367","1034153","1036154","1037067","1032950","515883","1036154","NA","Sternberg Task","75","99096","79","yes","1024"
"95","95","1257.0375","1257.0375","black","experiment","legacy","legacy","legacy","0","uniform","1","undefined","1","left","79","79","0","0","79","79","0","0","79","79","79","79","0","79","0","10/22/20 21:31:32","The main experiment item","yes","SternbergTask.osexp","C:\Users\18177\OneDrive\Documents\School\Grad School\Fall 2020\Lab 3 Sternberg Memory","no","mono","no","18","no","white","no","yes","768","legacy","67","11","C:/Users/18177/OneDrive/Documents/School/Grad School/Fall 2020/Lab 3 Sternberg Memory/subject-3.csv","legacy","7 6","Lentiform Loewenfeld","3.3.3","2","y","0","left","right","right","left","NA","1467","511305","5323","1467","NA","2","legacy","2","1024","2","48000","-16","experiment","3","odd","6","1037079","1038135","4569","600691","1038137","924495","4577","595367","1040341","1042342","1043810","1039138","515883","1042342","NA","Sternberg Task","76","100563","80","yes","1024"
"95.0617283951","95.0617283951","1256.49382716","1256.49382716","black","experiment","legacy","legacy","legacy","0","uniform","1","undefined","1","right","80","80","0","0","80","80","0","0","80","80","80","80","0","80","0","10/22/20 21:31:32","The main experiment item","yes","SternbergTask.osexp","C:\Users\18177\OneDrive\Documents\School\Grad School\Fall 2020\Lab 3 Sternberg Memory","no","mono","no","18","no","white","no","yes","768","legacy","68","11","C:/Users/18177/OneDrive/Documents/School/Grad School/Fall 2020/Lab 3 Sternberg Memory/subject-3.csv","legacy","1 7 5 2 9","Lentiform Loewenfeld","3.3.3","0","n","0","right","right","right","right","NA","1213","511305","5323","1213","NA","2","legacy","5","1024","2","48000","-16","experiment","3","odd","3","1043822","1044878","4569","600691","1044879","924495","4577","595367","1047087","1049087","1050301","1045883","515883","1049087","NA","Sternberg Task","77","101776","81","yes","1024"
"95.1219512195","95.1219512195","1258.58536585","1258.58536585","black","experiment","legacy","legacy","legacy","0","uniform","1","undefined","1","left","81","81","0","0","81","81","0","0","81","81","81","81","0","81","0","10/22/20 21:31:32","The main experiment item","yes","SternbergTask.osexp","C:\Users\18177\OneDrive\Documents\School\Grad School\Fall 2020\Lab 3 Sternberg Memory","no","mono","no","18","no","white","no","yes","768","legacy","69","11","C:/Users/18177/OneDrive/Documents/School/Grad School/Fall 2020/Lab 3 Sternberg Memory/subject-3.csv","legacy","4 9 7 8 5 3","Lentiform Loewenfeld","3.3.3","4","y","0","left","right","right","left","NA","1428","511305","5323","1428","NA","2","legacy","6","1024","2","48000","-16","experiment","3","odd","8","1050313","1051370","4569","600691","1051371","924495","4577","595367","1053576","1055578","1057007","1052372","515883","1055578","NA","Sternberg Task","78","103204","82","yes","1024"
"95.1807228916","95.1807228916","1258.46987952","1258.46987952","black","experiment","legacy","legacy","legacy","0","uniform","1","undefined","1","left","82","82","0","0","82","82","0","0","82","82","82","82","0","82","0","10/22/20 21:31:32","The main experiment item","yes","SternbergTask.osexp","C:\Users\18177\OneDrive\Documents\School\Grad School\Fall 2020\Lab 3 Sternberg Memory","no","mono","no","18","no","white","no","yes","768","legacy","70","11","C:/Users/18177/OneDrive/Documents/School/Grad School/Fall 2020/Lab 3 Sternberg Memory/subject-3.csv","legacy","1 4 9 3 2 5","Lentiform Loewenfeld","3.3.3","3","y","0","left","right","right","left","NA","1249","511305","5323","1249","NA","2","legacy","6","1024","2","48000","-16","experiment","3","odd","9","1057019","1058093","4569","600691","1058094","924495","4577","595367","1060299","1062300","1063550","1059095","515883","1062300","NA","Sternberg Task","79","104453","83","yes","1024"
"95.2380952381","95.2380952381","1262.53571429","1262.53571429","black","experiment","legacy","legacy","legacy","0","uniform","1","undefined","1","left","83","83","0","0","83","83","0","0","83","83","83","83","0","83","0","10/22/20 21:31:32","The main experiment item","yes","SternbergTask.osexp","C:\Users\18177\OneDrive\Documents\School\Grad School\Fall 2020\Lab 3 Sternberg Memory","no","mono","no","18","no","white","no","yes","768","legacy","71","11","C:/Users/18177/OneDrive/Documents/School/Grad School/Fall 2020/Lab 3 Sternberg Memory/subject-3.csv","legacy","5 7 8 2 3 8","Lentiform Loewenfeld","3.3.3","5","y","0","left","right","right","left","NA","1600","511305","5323","1600","NA","2","legacy","6","1024","2","48000","-16","experiment","3","odd","3","1063563","1064620","4569","600691","1064621","924495","4577","595367","1066824","1068825","1070426","1065622","515883","1068825","NA","Sternberg Task","80","106053","84","yes","1024"
"95.2941176471","95.2941176471","1265.01176471","1265.01176471","black","experiment","legacy","legacy","legacy","0","uniform","1","undefined","1","right","84","84","0","0","84","84","0","0","84","84","84","84","0","84","0","10/22/20 21:31:32","The main experiment item","yes","SternbergTask.osexp","C:\Users\18177\OneDrive\Documents\School\Grad School\Fall 2020\Lab 3 Sternberg Memory","no","mono","no","18","no","white","no","yes","768","legacy","72","11","C:/Users/18177/OneDrive/Documents/School/Grad School/Fall 2020/Lab 3 Sternberg Memory/subject-3.csv","legacy","7 8 6 1","Lentiform Loewenfeld","3.3.3","0","n","0","right","right","right","right","NA","1473","511305","5323","1473","NA","2","legacy","4","1024","2","48000","-16","experiment","3","odd","3","1070439","1071500","4569","600691","1071501","924495","4577","595367","1073710","1075714","1077189","1072505","515883","1075714","NA","Sternberg Task","81","107526","85","yes","1024"
"95.3488372093","95.3488372093","1262.3255814","1262.3255814","black","experiment","legacy","legacy","legacy","0","uniform","1","undefined","1","left","85","85","0","0","85","85","0","0","85","85","85","85","0","85","0","10/22/20 21:31:32","The main experiment item","yes","SternbergTask.osexp","C:\Users\18177\OneDrive\Documents\School\Grad School\Fall 2020\Lab 3 Sternberg Memory","no","mono","no","18","no","white","no","yes","768","legacy","73","11","C:/Users/18177/OneDrive/Documents/School/Grad School/Fall 2020/Lab 3 Sternberg Memory/subject-3.csv","legacy","8 3","Lentiform Loewenfeld","3.3.3","2","y","0","left","right","right","left","NA","1034","511305","5323","1034","NA","2","legacy","2","1024","2","48000","-16","experiment","3","odd","3","1077201","1078258","4569","600691","1078260","924495","4577","595367","1080463","1082464","1083499","1079261","515883","1082464","NA","Sternberg Task","82","108560","86","yes","1024"
"95.4022988506","95.4022988506","1266.11494253","1266.11494253","black","experiment","legacy","legacy","legacy","0","uniform","1","undefined","1","right","86","86","0","0","86","86","0","0","86","86","86","86","0","86","0","10/22/20 21:31:32","The main experiment item","yes","SternbergTask.osexp","C:\Users\18177\OneDrive\Documents\School\Grad School\Fall 2020\Lab 3 Sternberg Memory","no","mono","no","18","no","white","no","yes","768","legacy","74","11","C:/Users/18177/OneDrive/Documents/School/Grad School/Fall 2020/Lab 3 Sternberg Memory/subject-3.csv","legacy","1 8 7","Lentiform Loewenfeld","3.3.3","0","n","0","right","right","right","right","NA","1592","511305","5323","1592","NA","2","legacy","3","1024","2","48000","-16","experiment","3","odd","4","1083512","1084574","4569","600691","1084575","924495","4577","595367","1086780","1088781","1090374","1085576","515883","1088781","NA","Sternberg Task","83","110152","87","yes","1024"
"95.4545454545","95.4545454545","1264.5","1264.5","black","experiment","legacy","legacy","legacy","0","uniform","1","undefined","1","right","87","87","0","0","87","87","0","0","87","87","87","87","0","87","0","10/22/20 21:31:32","The main experiment item","yes","SternbergTask.osexp","C:\Users\18177\OneDrive\Documents\School\Grad School\Fall 2020\Lab 3 Sternberg Memory","no","mono","no","18","no","white","no","yes","768","legacy","75","11","C:/Users/18177/OneDrive/Documents/School/Grad School/Fall 2020/Lab 3 Sternberg Memory/subject-3.csv","legacy","2 6 4 3 9","Lentiform Loewenfeld","3.3.3","0","n","0","right","right","right","right","NA","1124","511305","5323","1124","NA","2","legacy","5","1024","2","48000","-16","experiment","3","odd","1","1090387","1091444","4569","600691","1091445","924495","4577","595367","1093648","1095653","1096778","1092446","515883","1095652","NA","Sternberg Task","84","111276","88","yes","1024"
"95.5056179775","95.5056179775","1267.37078652","1267.37078652","black","experiment","legacy","legacy","legacy","0","uniform","1","undefined","1","right","88","88","0","0","88","88","0","0","88","88","88","88","0","88","0","10/22/20 21:31:32","The main experiment item","yes","SternbergTask.osexp","C:\Users\18177\OneDrive\Documents\School\Grad School\Fall 2020\Lab 3 Sternberg Memory","no","mono","no","18","no","white","no","yes","768","legacy","76","11","C:/Users/18177/OneDrive/Documents/School/Grad School/Fall 2020/Lab 3 Sternberg Memory/subject-3.csv","legacy","9","Lentiform Loewenfeld","3.3.3","0","n","0","right","right","right","right","NA","1520","511305","5323","1520","NA","2","legacy","1","1024","2","48000","-16","experiment","3","odd","6","1096781","1097839","4569","600691","1097841","924495","4577","595367","1100046","1102048","1103569","1098842","515883","1102048","NA","Sternberg Task","85","112796","89","yes","1024"
"95.5555555556","95.5555555556","1267.96666667","1267.96666667","black","experiment","legacy","legacy","legacy","0","uniform","1","undefined","1","left","89","89","0","0","89","89","0","0","89","89","89","89","0","89","0","10/22/20 21:31:32","The main experiment item","yes","SternbergTask.osexp","C:\Users\18177\OneDrive\Documents\School\Grad School\Fall 2020\Lab 3 Sternberg Memory","no","mono","no","18","no","white","no","yes","768","legacy","77","11","C:/Users/18177/OneDrive/Documents/School/Grad School/Fall 2020/Lab 3 Sternberg Memory/subject-3.csv","legacy","6 7 9 3 1 2","Lentiform Loewenfeld","3.3.3","1","y","0","left","right","right","left","NA","1321","511305","5323","1321","NA","2","legacy","6","1024","2","48000","-16","experiment","3","odd","6","1103583","1104640","4569","600691","1104643","924495","4577","595367","1106851","1108852","1110174","1105646","515883","1108852","NA","Sternberg Task","86","114117","90","yes","1024"
"95.6043956044","95.6043956044","1263.12087912","1263.12087912","black","experiment","legacy","legacy","legacy","0","uniform","1","undefined","1","left","90","90","0","0","90","90","0","0","90","90","90","90","0","90","0","10/22/20 21:31:32","The main experiment item","yes","SternbergTask.osexp","C:\Users\18177\OneDrive\Documents\School\Grad School\Fall 2020\Lab 3 Sternberg Memory","no","mono","no","18","no","white","no","yes","768","legacy","78","11","C:/Users/18177/OneDrive/Documents/School/Grad School/Fall 2020/Lab 3 Sternberg Memory/subject-3.csv","legacy","4","Lentiform Loewenfeld","3.3.3","1","y","0","left","right","right","left","NA","827","511305","5323","827","NA","2","legacy","1","1024","2","48000","-16","experiment","3","odd","4","1110188","1111244","4569","600691","1111246","924495","4577","595367","1113451","1115452","1116281","1112247","515883","1115452","NA","Sternberg Task","87","114944","91","yes","1024"
"95.652173913","95.652173913","1260.19565217","1260.19565217","black","experiment","legacy","legacy","legacy","0","uniform","1","undefined","1","right","91","91","0","0","91","91","0","0","91","91","91","91","0","91","0","10/22/20 21:31:32","The main experiment item","yes","SternbergTask.osexp","C:\Users\18177\OneDrive\Documents\School\Grad School\Fall 2020\Lab 3 Sternberg Memory","no","mono","no","18","no","white","no","yes","768","legacy","79","11","C:/Users/18177/OneDrive/Documents/School/Grad School/Fall 2020/Lab 3 Sternberg Memory/subject-3.csv","legacy","6 7 5 9","Lentiform Loewenfeld","3.3.3","0","n","0","right","right","right","right","NA","994","511305","5323","994","NA","2","legacy","4","1024","2","48000","-16","experiment","3","odd","2","1116292","1117353","4569","600691","1117354","924495","4577","595367","1119558","1121562","1122557","1118355","515883","1121562","NA","Sternberg Task","88","115938","92","yes","1024"
"95.6989247312","95.6989247312","1261.75268817","1261.75268817","black","experiment","legacy","legacy","legacy","0","uniform","1","undefined","1","left","92","92","0","0","92","92","0","0","92","92","92","92","0","92","0","10/22/20 21:31:32","The main experiment item","yes","SternbergTask.osexp","C:\Users\18177\OneDrive\Documents\School\Grad School\Fall 2020\Lab 3 Sternberg Memory","no","mono","no","18","no","white","no","yes","768","legacy","80","11","C:/Users/18177/OneDrive/Documents/School/Grad School/Fall 2020/Lab 3 Sternberg Memory/subject-3.csv","legacy","6 8 9 3 4 9","Lentiform Loewenfeld","3.3.3","5","y","0","left","right","right","left","NA","1405","511305","5323","1405","NA","2","legacy","6","1024","2","48000","-16","experiment","3","odd","4","1122568","1123625","4569","600691","1123627","924495","4577","595367","1125831","1127833","1129238","1124628","515883","1127833","NA","Sternberg Task","89","117343","93","yes","1024"
"95.7446808511","95.7446808511","1263.04255319","1263.04255319","black","experiment","legacy","legacy","legacy","0","uniform","1","undefined","1","right","93","93","0","0","93","93","0","0","93","93","93","93","0","93","0","10/22/20 21:31:32","The main experiment item","yes","SternbergTask.osexp","C:\Users\18177\OneDrive\Documents\School\Grad School\Fall 2020\Lab 3 Sternberg Memory","no","mono","no","18","no","white","no","yes","768","legacy","81","11","C:/Users/18177/OneDrive/Documents/School/Grad School/Fall 2020/Lab 3 Sternberg Memory/subject-3.csv","legacy","6 2 9 3 8 4","Lentiform Loewenfeld","3.3.3","0","n","0","right","right","right","right","NA","1383","511305","5323","1383","NA","2","legacy","6","1024","2","48000","-16","experiment","3","odd","1","1129250","1130308","4569","600691","1130309","924495","4577","595367","1132514","1134515","1135899","1131310","515883","1134515","NA","Sternberg Task","90","118726","94","yes","1024"
"95.7894736842","95.7894736842","1263.55789474","1263.55789474","black","experiment","legacy","legacy","legacy","0","uniform","1","undefined","1","right","94","94","0","0","94","94","0","0","94","94","94","94","0","94","0","10/22/20 21:31:32","The main experiment item","yes","SternbergTask.osexp","C:\Users\18177\OneDrive\Documents\School\Grad School\Fall 2020\Lab 3 Sternberg Memory","no","mono","no","18","no","white","no","yes","768","legacy","82","11","C:/Users/18177/OneDrive/Documents/School/Grad School/Fall 2020/Lab 3 Sternberg Memory/subject-3.csv","legacy","4 2 7 6 1 3","Lentiform Loewenfeld","3.3.3","0","n","0","right","right","right","right","NA","1312","511305","5323","1312","NA","2","legacy","6","1024","2","48000","-16","experiment","3","odd","8","1135912","1136969","4569","600691","1136971","924495","4577","595367","1139174","1141175","1142488","1137972","515883","1141175","NA","Sternberg Task","91","120038","95","yes","1024"
"95.8333333333","95.8333333333","1264.34375","1264.34375","black","experiment","legacy","legacy","legacy","0","uniform","1","undefined","1","right","95","95","0","0","95","95","0","0","95","95","95","95","0","95","0","10/22/20 21:31:32","The main experiment item","yes","SternbergTask.osexp","C:\Users\18177\OneDrive\Documents\School\Grad School\Fall 2020\Lab 3 Sternberg Memory","no","mono","no","18","no","white","no","yes","768","legacy","83","11","C:/Users/18177/OneDrive/Documents/School/Grad School/Fall 2020/Lab 3 Sternberg Memory/subject-3.csv","legacy","7 3 2 8","Lentiform Loewenfeld","3.3.3","0","n","0","right","right","right","right","NA","1339","511305","5323","1339","NA","2","legacy","4","1024","2","48000","-16","experiment","3","odd","4","1142499","1143556","4569","600691","1143557","924495","4577","595367","1145762","1147766","1149106","1144559","515883","1147766","NA","Sternberg Task","92","121377","96","yes","1024"
"94.8453608247","94.8453608247","1260.21649485","1260.21649485","black","experiment","legacy","legacy","legacy","0","uniform","0","undefined","0","left","96","96","0","0","96","96","0","0","96","96","96","96","0","96","0","10/22/20 21:31:32","The main experiment item","yes","SternbergTask.osexp","C:\Users\18177\OneDrive\Documents\School\Grad School\Fall 2020\Lab 3 Sternberg Memory","no","mono","no","18","no","white","no","yes","768","legacy","84","11","C:/Users/18177/OneDrive/Documents/School/Grad School/Fall 2020/Lab 3 Sternberg Memory/subject-3.csv","legacy","5 7 3 6 2","Lentiform Loewenfeld","3.3.3","5","y","0","right","right","right","right","NA","864","511305","5323","864","NA","2","legacy","5","1024","2","48000","-16","experiment","3","odd","2","1149117","1150177","4569","600691","1150179","924495","4577","595367","1152384","1154388","1155253","1151180","515883","1154388","NA","Sternberg Task","92","122241","97","yes","1024"
"94.8979591837","94.8979591837","1259.87755102","1259.87755102","black","experiment","legacy","legacy","legacy","0","uniform","1","undefined","1","left","97","97","0","0","97","97","0","0","97","97","97","97","0","97","0","10/22/20 21:31:32","The main experiment item","yes","SternbergTask.osexp","C:\Users\18177\OneDrive\Documents\School\Grad School\Fall 2020\Lab 3 Sternberg Memory","no","mono","no","18","no","white","no","yes","768","legacy","85","11","C:/Users/18177/OneDrive/Documents/School/Grad School/Fall 2020/Lab 3 Sternberg Memory/subject-3.csv","legacy","9 3 1 2 5","Lentiform Loewenfeld","3.3.3","4","y","0","left","right","right","left","NA","1227","511305","5323","1227","NA","2","legacy","5","1024","2","48000","-16","experiment","3","odd","2","1149117","1156344","4569","600691","1156346","1155265","4577","595367","1158548","1160553","1161781","1157347","515883","1160552","NA","Sternberg Task","93","123468","98","yes","1024"
"94.9494949495","94.9494949495","1266.68686869","1266.68686869","black","experiment","legacy","legacy","legacy","0","uniform","1","undefined","1","right","98","98","0","0","98","98","0","0","98","98","98","98","0","98","0","10/22/20 21:31:32","The main experiment item","yes","SternbergTask.osexp","C:\Users\18177\OneDrive\Documents\School\Grad School\Fall 2020\Lab 3 Sternberg Memory","no","mono","no","18","no","white","no","yes","768","legacy","86","11","C:/Users/18177/OneDrive/Documents/School/Grad School/Fall 2020/Lab 3 Sternberg Memory/subject-3.csv","legacy","8 5 7 3 6","Lentiform Loewenfeld","3.3.3","0","n","0","right","right","right","right","NA","1934","511305","5323","1934","NA","2","legacy","5","1024","2","48000","-16","experiment","3","odd","9","1161793","1162849","4569","600691","1162851","1155265","4577","595367","1165056","1167057","1168992","1163852","515883","1167057","NA","Sternberg Task","94","125402","99","yes","1024"
"95","95","1263.85","1263.85","black","experiment","legacy","legacy","legacy","0","uniform","1","undefined","1","left","99","99","0","0","99","99","0","0","99","99","99","99","0","99","0","10/22/20 21:31:32","The main experiment item","yes","SternbergTask.osexp","C:\Users\18177\OneDrive\Documents\School\Grad School\Fall 2020\Lab 3 Sternberg Memory","no","mono","no","18","no","white","no","yes","768","legacy","87","11","C:/Users/18177/OneDrive/Documents/School/Grad School/Fall 2020/Lab 3 Sternberg Memory/subject-3.csv","legacy","3 5 4 7","Lentiform Loewenfeld","3.3.3","1","y","0","left","right","right","left","NA","983","511305","5323","983","NA","2","legacy","4","1024","2","48000","-16","experiment","3","odd","3","1169004","1170061","4569","600691","1170062","1155265","4577","595367","1172268","1174269","1175253","1171063","515883","1174269","NA","Sternberg Task","95","126385","100","yes","1024"
"94.0594059406","94.0594059406","1271.13861386","1271.13861386","black","experiment","legacy","legacy","legacy","0","uniform","0","undefined","0","right","100","100","0","0","100","100","0","0","100","100","100","100","0","100","0","10/22/20 21:31:32","The main experiment item","yes","SternbergTask.osexp","C:\Users\18177\OneDrive\Documents\School\Grad School\Fall 2020\Lab 3 Sternberg Memory","no","mono","no","18","no","white","no","yes","768","legacy","88","11","C:/Users/18177/OneDrive/Documents/School/Grad School/Fall 2020/Lab 3 Sternberg Memory/subject-3.csv","legacy","7 1","Lentiform Loewenfeld","3.3.3","0","n","0","None","right","right","None","NA","2000","511305","5323","2000","NA","2","legacy","2","1024","2","48000","-16","experiment","3","odd","8","1175265","1176323","4569","600691","1176324","1155265","4577","595367","1178526","1180527","1182527","1177325","515883","1180527","NA","Sternberg Task","95","128385","101","yes","1024"
"94.1176470588","94.1176470588","1267.64705882","1267.64705882","black","experiment","legacy","legacy","legacy","0","uniform","1","undefined","1","left","101","101","0","0","101","101","0","0","101","101","101","101","0","101","0","10/22/20 21:31:32","The main experiment item","yes","SternbergTask.osexp","C:\Users\18177\OneDrive\Documents\School\Grad School\Fall 2020\Lab 3 Sternberg Memory","no","mono","no","18","no","white","no","yes","768","legacy","89","11","C:/Users/18177/OneDrive/Documents/School/Grad School/Fall 2020/Lab 3 Sternberg Memory/subject-3.csv","legacy","3 5 7 1","Lentiform Loewenfeld","3.3.3","3","y","0","left","right","right","left","NA","915","511305","5323","915","NA","2","legacy","4","1024","2","48000","-16","experiment","3","odd","7","1175265","1183596","4569","600691","1183597","1182539","4577","595367","1185803","1187804","1188720","1184599","515883","1187804","NA","Sternberg Task","96","129300","102","yes","1024"
"94.1747572816","94.1747572816","1271.40776699","1271.40776699","black","experiment","legacy","legacy","legacy","0","uniform","1","undefined","1","left","102","102","0","0","102","102","0","0","102","102","102","102","0","102","0","10/22/20 21:31:32","The main experiment item","yes","SternbergTask.osexp","C:\Users\18177\OneDrive\Documents\School\Grad School\Fall 2020\Lab 3 Sternberg Memory","no","mono","no","18","no","white","no","yes","768","legacy","90","11","C:/Users/18177/OneDrive/Documents/School/Grad School/Fall 2020/Lab 3 Sternberg Memory/subject-3.csv","legacy","7 4 2 6 3 5","Lentiform Loewenfeld","3.3.3","6","y","0","left","right","right","left","NA","1655","511305","5323","1655","NA","2","legacy","6","1024","2","48000","-16","experiment","3","odd","5","1188731","1189788","4569","600691","1189788","1182539","4577","595367","1191993","1193994","1195650","1190790","515883","1193994","NA","Sternberg Task","97","130955","103","yes","1024"
"94.2307692308","94.2307692308","1273.93269231","1273.93269231","black","experiment","legacy","legacy","legacy","0","uniform","1","undefined","1","right","103","103","0","0","103","103","0","0","103","103","103","103","0","103","0","10/22/20 21:31:32","The main experiment item","yes","SternbergTask.osexp","C:\Users\18177\OneDrive\Documents\School\Grad School\Fall 2020\Lab 3 Sternberg Memory","no","mono","no","18","no","white","no","yes","768","legacy","91","11","C:/Users/18177/OneDrive/Documents/School/Grad School/Fall 2020/Lab 3 Sternberg Memory/subject-3.csv","legacy","1 6 4 3 9 7","Lentiform Loewenfeld","3.3.3","0","n","0","right","right","right","right","NA","1534","511305","5323","1534","NA","2","legacy","6","1024","2","48000","-16","experiment","3","odd","8","1195661","1196718","4569","600691","1196719","1182539","4577","595367","1198924","1200928","1202463","1197721","515883","1200928","NA","Sternberg Task","98","132489","104","yes","1024"
"94.2857142857","94.2857142857","1276.2","1276.2","black","experiment","legacy","legacy","legacy","0","uniform","1","undefined","1","left","104","104","0","0","104","104","0","0","104","104","104","104","0","104","0","10/22/20 21:31:32","The main experiment item","yes","SternbergTask.osexp","C:\Users\18177\OneDrive\Documents\School\Grad School\Fall 2020\Lab 3 Sternberg Memory","no","mono","no","18","no","white","no","yes","768","legacy","92","11","C:/Users/18177/OneDrive/Documents/School/Grad School/Fall 2020/Lab 3 Sternberg Memory/subject-3.csv","legacy","9 1 6 7 8","Lentiform Loewenfeld","3.3.3","1","y","0","left","right","right","left","NA","1512","511305","5323","1512","NA","2","legacy","5","1024","2","48000","-16","experiment","3","odd","9","1202476","1203533","4569","600691","1203535","1182539","4577","595367","1205737","1207738","1209251","1204536","515883","1207738","NA","Sternberg Task","99","134001","105","yes","1024"
