"acc","accuracy","average_response_time","avg_rt","background","block","canvas_backend","clock_backend","color_backend","compensation","coordinates","correct","correct_instruction1","correct_new_keyboard_response","correct_response","count_ISI","count_correctfeedback","count_expSequence","count_experiment","count_experimentLoop","count_fixation","count_incorrect","count_instruction1","count_instruction2","count_memorySet","count_new_keyboard_response","count_new_logger","count_practiceLoop","count_probe","count_thankYou","datetime","description","disable_garbage_collection","experiment_file","experiment_path","font_bold","font_family","font_italic","font_size","font_underline","foreground","form_clicks","fullscreen","height","keyboard_backend","live_row","live_row_practiceLoop","logfile","mouse_backend","numberSet","opensesame_codename","opensesame_version","posInSet","present","repeat_cycle","response","response_instruction1","response_instruction2","response_new_keyboard_response","response_thankYou","response_time","response_time_instruction1","response_time_instruction2","response_time_new_keyboard_response","response_time_thankYou","round_decimals","sampler_backend","setSize","sound_buf_size","sound_channels","sound_freq","sound_sample_size","start","subject_nr","subject_parity","target","time_ISI","time_correctfeedback","time_expSequence","time_experiment","time_experimentLoop","time_fixation","time_incorrect","time_instruction1","time_instruction2","time_memorySet","time_new_keyboard_response","time_new_logger","time_practiceLoop","time_probe","time_thankYou","title","total_correct","total_response_time","total_responses","uniform_coordinates","width"
"0","0","2000","2000","black","practice","legacy","legacy","legacy","0","uniform","0","undefined","0","right","0","0","0","0","0","0","0","0","0","0","0","0","0","0","0","Sun Oct 25 14:13:47 2020","The main experiment item","yes","SternbergTask-AL.osexp","/Users/annielenoir/Desktop","no","mono","no","18","no","white","no","no","768","legacy","0","0","/Users/annielenoir/Desktop/AL-subject-2.csv","legacy","5","Lentiform Loewenfeld","3.3.3","0","n","0","None","right","NA","None","NA","2000","108082","NA","2000","NA","2","legacy","1","1024","2","48000","-16","experiment","2","even","3","112557","NA","109928","1604","NA","110062","NA","1772","NA","111207","114703","116703","109860","114703","NA","Sternberg Task","0","2000","1","yes","1024"
"0","0","2000","2000","black","practice","legacy","legacy","legacy","0","uniform","0","undefined","0","left","1","1","1","0","0","1","1","0","0","1","1","1","0","1","0","Sun Oct 25 14:13:47 2020","The main experiment item","yes","SternbergTask-AL.osexp","/Users/annielenoir/Desktop","no","mono","no","18","no","white","no","no","768","legacy","1","1","/Users/annielenoir/Desktop/AL-subject-2.csv","legacy","1 7 9 8 5","Lentiform Loewenfeld","3.3.3","4","y","0","None","right","NA","None","NA","2000","108082","NA","2000","NA","2","legacy","5","1024","2","48000","-16","experiment","2","even","8","121101","NA","118483","1604","NA","118619","116904","1772","NA","119754","123240","125240","109860","123240","NA","Sternberg Task","0","4000","2","yes","1024"
"0","0","2000","2000","black","practice","legacy","legacy","legacy","0","uniform","0","undefined","0","right","2","2","2","0","0","2","2","0","0","2","2","2","0","2","0","Sun Oct 25 14:13:47 2020","The main experiment item","yes","SternbergTask-AL.osexp","/Users/annielenoir/Desktop","no","mono","no","18","no","white","no","no","768","legacy","2","2","/Users/annielenoir/Desktop/AL-subject-2.csv","legacy","2 1","Lentiform Loewenfeld","3.3.3","0","n","0","None","right","NA","None","NA","2000","108082","NA","2000","NA","2","legacy","2","1024","2","48000","-16","experiment","2","even","5","129143","NA","126516","1604","NA","126661","125381","1772","NA","127796","131288","133288","109860","131288","NA","Sternberg Task","0","6000","3","yes","1024"
"0","0","2000","2000","black","practice","legacy","legacy","legacy","0","uniform","0","undefined","0","right","3","3","3","0","0","3","3","0","0","3","3","3","0","3","0","Sun Oct 25 14:13:47 2020","The main experiment item","yes","SternbergTask-AL.osexp","/Users/annielenoir/Desktop","no","mono","no","18","no","white","no","no","768","legacy","3","3","/Users/annielenoir/Desktop/AL-subject-2.csv","legacy","5 7 8 4 1 2","Lentiform Loewenfeld","3.3.3","0","n","0","None","right","NA","None","NA","2000","108082","NA","2000","NA","2","legacy","6","1024","2","48000","-16","experiment","2","even","6","137201","NA","134563","1604","NA","134707","133430","1772","NA","135854","139346","141346","109860","139346","NA","Sternberg Task","0","8000","4","yes","1024"
"0","0","2000","2000","black","practice","legacy","legacy","legacy","0","uniform","0","undefined","0","left","4","4","4","0","0","4","4","0","0","4","4","4","0","4","0","Sun Oct 25 14:13:47 2020","The main experiment item","yes","SternbergTask-AL.osexp","/Users/annielenoir/Desktop","no","mono","no","18","no","white","no","no","768","legacy","4","4","/Users/annielenoir/Desktop/AL-subject-2.csv","legacy","2 9 4","Lentiform Loewenfeld","3.3.3","3","y","0","None","right","NA","None","NA","2000","108082","NA","2000","NA","2","legacy","3","1024","2","48000","-16","experiment","2","even","4","145261","NA","142628","1604","NA","142767","141492","1772","NA","143913","147409","149409","109860","147408","NA","Sternberg Task","0","10000","5","yes","1024"
"0","0","2000","2000","black","practice","legacy","legacy","legacy","0","uniform","0","undefined","0","left","5","5","5","0","0","5","5","0","0","5","5","5","0","5","0","Sun Oct 25 14:13:47 2020","The main experiment item","yes","SternbergTask-AL.osexp","/Users/annielenoir/Desktop","no","mono","no","18","no","white","no","no","768","legacy","5","5","/Users/annielenoir/Desktop/AL-subject-2.csv","legacy","4 8","Lentiform Loewenfeld","3.3.3","1","y","0","None","right","NA","None","NA","2000","108082","NA","2000","NA","2","legacy","2","1024","2","48000","-16","experiment","2","even","4","153309","NA","150667","1604","NA","150809","149555","1772","NA","151961","155454","157454","109860","155454","NA","Sternberg Task","0","12000","6","yes","1024"
"0","0","2000","2000","black","practice","legacy","legacy","legacy","0","uniform","0","undefined","0","right","6","6","6","0","0","6","6","0","0","6","6","6","0","6","0","Sun Oct 25 14:13:47 2020","The main experiment item","yes","SternbergTask-AL.osexp","/Users/annielenoir/Desktop","no","mono","no","18","no","white","no","no","768","legacy","6","6","/Users/annielenoir/Desktop/AL-subject-2.csv","legacy","9 6 7 4 5","Lentiform Loewenfeld","3.3.3","0","n","0","None","right","NA","None","NA","2000","108082","NA","2000","NA","2","legacy","5","1024","2","48000","-16","experiment","2","even","3","161373","NA","158736","1604","NA","158876","157601","1772","NA","160023","163520","165520","109860","163520","NA","Sternberg Task","0","14000","7","yes","1024"
"0","0","2000","2000","black","practice","legacy","legacy","legacy","0","uniform","0","undefined","0","right","7","7","7","0","0","7","7","0","0","7","7","7","0","7","0","Sun Oct 25 14:13:47 2020","The main experiment item","yes","SternbergTask-AL.osexp","/Users/annielenoir/Desktop","no","mono","no","18","no","white","no","no","768","legacy","7","7","/Users/annielenoir/Desktop/AL-subject-2.csv","legacy","4 1 5","Lentiform Loewenfeld","3.3.3","0","n","0","None","right","NA","None","NA","2000","108082","NA","2000","NA","2","legacy","3","1024","2","48000","-16","experiment","2","even","2","169430","NA","166794","1604","NA","166939","165669","1772","NA","168091","171576","173576","109860","171576","NA","Sternberg Task","0","16000","8","yes","1024"
"11.11111111111111","11.11111111111111","1966.6666666666667","1966.6666666666667","black","practice","legacy","legacy","legacy","0","uniform","1","undefined","1","left","8","8","8","0","0","8","8","0","0","8","8","8","0","8","0","Sun Oct 25 14:13:47 2020","The main experiment item","yes","SternbergTask-AL.osexp","/Users/annielenoir/Desktop","no","mono","no","18","no","white","no","no","768","legacy","8","8","/Users/annielenoir/Desktop/AL-subject-2.csv","legacy","4 3 1 7 9 8","Lentiform Loewenfeld","3.3.3","1","y","0","left","right","NA","left","NA","1700","108082","NA","1700","NA","2","legacy","6","1024","2","48000","-16","experiment","2","even","4","177504","NA","174865","1604","NA","175004","173723","1772","NA","176154","179653","181354","109860","179653","NA","Sternberg Task","1","17700","9","yes","1024"
"10","10","1970","1970","black","practice","legacy","legacy","legacy","0","uniform","0","undefined","0","left","9","9","9","0","0","9","9","0","0","9","9","9","0","9","0","Sun Oct 25 14:13:47 2020","The main experiment item","yes","SternbergTask-AL.osexp","/Users/annielenoir/Desktop","no","mono","no","18","no","white","no","no","768","legacy","9","9","/Users/annielenoir/Desktop/AL-subject-2.csv","legacy","6","Lentiform Loewenfeld","3.3.3","1","y","0","None","right","NA","None","NA","2000","108082","NA","2000","NA","2","legacy","1","1024","2","48000","-16","experiment","2","even","6","185263","181504","182627","1604","NA","182766","173723","1772","NA","183914","187411","189411","109860","187411","NA","Sternberg Task","1","19700","10","yes","1024"
"18.181818181818183","18.181818181818183","1932.2727272727273","1932.2727272727273","black","practice","legacy","legacy","legacy","0","uniform","1","undefined","1","left","10","10","10","0","0","10","10","0","0","10","10","10","0","10","0","Sun Oct 25 14:13:47 2020","The main experiment item","yes","SternbergTask-AL.osexp","/Users/annielenoir/Desktop","no","mono","no","18","no","white","no","no","768","legacy","10","10","/Users/annielenoir/Desktop/AL-subject-2.csv","legacy","1 5 2 9","Lentiform Loewenfeld","3.3.3","2","y","0","left","right","NA","left","NA","1555","108082","NA","1555","NA","2","legacy","4","1024","2","48000","-16","experiment","2","even","5","193360","181504","190725","1604","NA","190868","189561","1772","NA","192009","195508","197064","109860","195508","NA","Sternberg Task","2","21255","11","yes","1024"
"25","25","1904.5","1904.5","black","practice","legacy","legacy","legacy","0","uniform","1","undefined","1","right","11","11","11","0","0","11","11","0","0","11","11","11","0","11","0","Sun Oct 25 14:13:47 2020","The main experiment item","yes","SternbergTask-AL.osexp","/Users/annielenoir/Desktop","no","mono","no","18","no","white","no","no","768","legacy","11","11","/Users/annielenoir/Desktop/AL-subject-2.csv","legacy","3 1 9 4","Lentiform Loewenfeld","3.3.3","0","n","0","right","right","NA","right","NA","1599","108082","NA","1599","NA","2","legacy","4","1024","2","48000","-16","experiment","2","even","6","200986","197214","198349","1604","NA","198488","189561","1772","NA","199634","203135","204735","109860","203135","NA","Sternberg Task","3","22854","12","yes","1024"
"30.76923076923077","30.76923076923077","1827.7692307692307","1827.7692307692307","black","experiment","legacy","legacy","legacy","0","uniform","1","undefined","1","right","12","12","12","0","0","12","12","0","0","12","12","12","0","12","0","Sun Oct 25 14:13:47 2020","The main experiment item","yes","SternbergTask-AL.osexp","/Users/annielenoir/Desktop","no","mono","no","18","no","white","no","no","768","legacy","0","11","/Users/annielenoir/Desktop/AL-subject-2.csv","legacy","1 7 5 2 9","Lentiform Loewenfeld","3.3.3","0","n","0","right","right","right","right","NA","907","108082","17303","907","NA","2","legacy","5","1024","2","48000","-16","experiment","2","even","3","226111","204884","223468","1604","223406","223609","189561","1772","206102","224759","228259","229167","109860","228259","NA","Sternberg Task","4","23761","13","yes","1024"
"35.714285714285715","35.714285714285715","1788.7857142857142","1788.7857142857142","black","experiment","legacy","legacy","legacy","0","uniform","1","undefined","1","right","13","13","13","0","0","13","13","0","0","13","13","13","0","13","0","Sun Oct 25 14:13:47 2020","The main experiment item","yes","SternbergTask-AL.osexp","/Users/annielenoir/Desktop","no","mono","no","18","no","white","no","no","768","legacy","1","11","/Users/annielenoir/Desktop/AL-subject-2.csv","legacy","5 7 3","Lentiform Loewenfeld","3.3.3","0","n","0","right","right","right","right","NA","1282","108082","17303","1282","NA","2","legacy","3","1024","2","48000","-16","experiment","2","even","9","233150","229313","230514","1604","223406","230653","189561","1772","206102","231800","235297","236580","109860","235297","NA","Sternberg Task","5","25043","14","yes","1024"
"40","40","1723.4666666666667","1723.4666666666667","black","experiment","legacy","legacy","legacy","0","uniform","1","undefined","1","right","14","14","14","0","0","14","14","0","0","14","14","14","0","14","0","Sun Oct 25 14:13:47 2020","The main experiment item","yes","SternbergTask-AL.osexp","/Users/annielenoir/Desktop","no","mono","no","18","no","white","no","no","768","legacy","2","11","/Users/annielenoir/Desktop/AL-subject-2.csv","legacy","1 7 5 2","Lentiform Loewenfeld","3.3.3","0","n","0","right","right","right","right","NA","809","108082","17303","809","NA","2","legacy","4","1024","2","48000","-16","experiment","2","even","3","240494","236729","237857","1604","223406","238000","189561","1772","206102","239147","242641","243451","109860","242641","NA","Sternberg Task","6","25852","15","yes","1024"
"43.75","43.75","1673.375","1673.375","black","experiment","legacy","legacy","legacy","0","uniform","1","undefined","1","left","15","15","15","0","0","15","15","0","0","15","15","15","0","15","0","Sun Oct 25 14:13:47 2020","The main experiment item","yes","SternbergTask-AL.osexp","/Users/annielenoir/Desktop","no","mono","no","18","no","white","no","no","768","legacy","3","11","/Users/annielenoir/Desktop/AL-subject-2.csv","legacy","2 6 1 7 4","Lentiform Loewenfeld","3.3.3","2","y","0","left","right","right","left","NA","922","108082","17303","922","NA","2","legacy","5","1024","2","48000","-16","experiment","2","even","6","247394","243602","244760","1604","223406","244901","189561","1772","206102","246044","249540","250462","109860","249540","NA","Sternberg Task","7","26774","16","yes","1024"
"47.05882352941177","47.05882352941177","1633.5294117647059","1633.5294117647059","black","experiment","legacy","legacy","legacy","0","uniform","1","undefined","1","right","16","16","16","0","0","16","16","0","0","16","16","16","0","16","0","Sun Oct 25 14:13:47 2020","The main experiment item","yes","SternbergTask-AL.osexp","/Users/annielenoir/Desktop","no","mono","no","18","no","white","no","no","768","legacy","4","11","/Users/annielenoir/Desktop/AL-subject-2.csv","legacy","7 9 1 6","Lentiform Loewenfeld","3.3.3","0","n","0","right","right","right","right","NA","996","108082","17303","996","NA","2","legacy","4","1024","2","48000","-16","experiment","2","even","4","254398","250612","251773","1604","223406","251912","189561","1772","206102","253050","256544","257540","109860","256544","NA","Sternberg Task","8","27770","17","yes","1024"
"44.44444444444444","44.44444444444444","1599.5","1599.5","black","experiment","legacy","legacy","legacy","0","uniform","0","undefined","0","left","17","17","17","0","0","17","17","0","0","17","17","17","0","17","0","Sun Oct 25 14:13:47 2020","The main experiment item","yes","SternbergTask-AL.osexp","/Users/annielenoir/Desktop","no","mono","no","18","no","white","no","no","768","legacy","5","11","/Users/annielenoir/Desktop/AL-subject-2.csv","legacy","3 5 7 1","Lentiform Loewenfeld","3.3.3","3","y","0","right","right","right","right","NA","1021","108082","17303","1021","NA","2","legacy","4","1024","2","48000","-16","experiment","2","even","7","261486","257693","258859","1604","223406","258999","189561","1772","206102","260137","263632","264654","109860","263632","NA","Sternberg Task","8","28791","18","yes","1024"
"47.36842105263158","47.36842105263158","1572.6315789473683","1572.6315789473683","black","experiment","legacy","legacy","legacy","0","uniform","1","undefined","1","left","18","18","18","0","0","18","18","0","0","18","18","18","0","18","0","Sun Oct 25 14:13:47 2020","The main experiment item","yes","SternbergTask-AL.osexp","/Users/annielenoir/Desktop","no","mono","no","18","no","white","no","no","768","legacy","6","11","/Users/annielenoir/Desktop/AL-subject-2.csv","legacy","8 3","Lentiform Loewenfeld","3.3.3","2","y","0","left","right","right","left","NA","1089","108082","17303","1089","NA","2","legacy","2","1024","2","48000","-16","experiment","2","even","3","268602","257693","265973","1604","223406","266111","264806","1772","206102","267253","270750","271840","109860","270750","NA","Sternberg Task","9","29880","19","yes","1024"
"50","50","1541","1541","black","experiment","legacy","legacy","legacy","0","uniform","1","undefined","1","left","19","19","19","0","0","19","19","0","0","19","19","19","0","19","0","Sun Oct 25 14:13:47 2020","The main experiment item","yes","SternbergTask-AL.osexp","/Users/annielenoir/Desktop","no","mono","no","18","no","white","no","no","768","legacy","7","11","/Users/annielenoir/Desktop/AL-subject-2.csv","legacy","9 3 8 2 1 4","Lentiform Loewenfeld","3.3.3","3","y","0","left","right","right","left","NA","940","108082","17303","940","NA","2","legacy","6","1024","2","48000","-16","experiment","2","even","8","275789","271992","273162","1604","223406","273301","264806","1772","206102","274440","277940","278882","109860","277940","NA","Sternberg Task","10","30820","20","yes","1024"
"52.38095238095238","52.38095238095238","1522.4285714285713","1522.4285714285713","black","experiment","legacy","legacy","legacy","0","uniform","1","undefined","1","left","20","20","20","0","0","20","20","0","0","20","20","20","0","20","0","Sun Oct 25 14:13:47 2020","The main experiment item","yes","SternbergTask-AL.osexp","/Users/annielenoir/Desktop","no","mono","no","18","no","white","no","no","768","legacy","8","11","/Users/annielenoir/Desktop/AL-subject-2.csv","legacy","7 1 8 5 6 2","Lentiform Loewenfeld","3.3.3","2","y","0","left","right","right","left","NA","1151","108082","17303","1151","NA","2","legacy","6","1024","2","48000","-16","experiment","2","even","1","282833","279033","280201","1604","223406","280340","264806","1772","206102","281483","284979","286131","109860","284979","NA","Sternberg Task","11","31971","21","yes","1024"
"54.54545454545455","54.54545454545455","1477.590909090909","1477.590909090909","black","experiment","legacy","legacy","legacy","0","uniform","1","undefined","1","left","21","21","21","0","0","21","21","0","0","21","21","21","0","21","0","Sun Oct 25 14:13:47 2020","The main experiment item","yes","SternbergTask-AL.osexp","/Users/annielenoir/Desktop","no","mono","no","18","no","white","no","no","768","legacy","9","11","/Users/annielenoir/Desktop/AL-subject-2.csv","legacy","3 9 6 2","Lentiform Loewenfeld","3.3.3","4","y","0","left","right","right","left","NA","536","108082","17303","536","NA","2","legacy","4","1024","2","48000","-16","experiment","2","even","2","290071","286285","287443","1604","223406","287584","264806","1772","206102","288724","292222","292759","109860","292222","NA","Sternberg Task","12","32507","22","yes","1024"
"56.52173913043478","56.52173913043478","1453.7391304347825","1453.7391304347825","black","experiment","legacy","legacy","legacy","0","uniform","1","undefined","1","left","22","22","22","0","0","22","22","0","0","22","22","22","0","22","0","Sun Oct 25 14:13:47 2020","The main experiment item","yes","SternbergTask-AL.osexp","/Users/annielenoir/Desktop","no","mono","no","18","no","white","no","no","768","legacy","10","11","/Users/annielenoir/Desktop/AL-subject-2.csv","legacy","7 1 3","Lentiform Loewenfeld","3.3.3","2","y","0","left","right","right","left","NA","929","108082","17303","929","NA","2","legacy","3","1024","2","48000","-16","experiment","2","even","1","296687","292909","294037","1604","223406","294186","264806","1772","206102","295338","298826","299756","109860","298826","NA","Sternberg Task","13","33436","23","yes","1024"
"58.333333333333336","58.333333333333336","1420.375","1420.375","black","experiment","legacy","legacy","legacy","0","uniform","1","undefined","1","left","23","23","23","0","0","23","23","0","0","23","23","23","0","23","0","Sun Oct 25 14:13:47 2020","The main experiment item","yes","SternbergTask-AL.osexp","/Users/annielenoir/Desktop","no","mono","no","18","no","white","no","no","768","legacy","11","11","/Users/annielenoir/Desktop/AL-subject-2.csv","legacy","2 4 8 5 1 3","Lentiform Loewenfeld","3.3.3","1","y","0","left","right","right","left","NA","653","108082","17303","653","NA","2","legacy","6","1024","2","48000","-16","experiment","2","even","2","303691","299908","301059","1604","223406","301200","264806","1772","206102","302342","305837","306491","109860","305836","NA","Sternberg Task","14","34089","24","yes","1024"
"60","60","1388.48","1388.48","black","experiment","legacy","legacy","legacy","0","uniform","1","undefined","1","right","24","24","24","0","0","24","24","0","0","24","24","24","0","24","0","Sun Oct 25 14:13:47 2020","The main experiment item","yes","SternbergTask-AL.osexp","/Users/annielenoir/Desktop","no","mono","no","18","no","white","no","no","768","legacy","12","11","/Users/annielenoir/Desktop/AL-subject-2.csv","legacy","4 1","Lentiform Loewenfeld","3.3.3","0","n","0","right","right","right","right","NA","623","108082","17303","623","NA","2","legacy","2","1024","2","48000","-16","experiment","2","even","6","310440","306642","307809","1604","223406","307951","264806","1772","206102","309091","312583","313206","109860","312583","NA","Sternberg Task","15","34712","25","yes","1024"
"57.69230769230769","57.69230769230769","1383.3461538461538","1383.3461538461538","black","experiment","legacy","legacy","legacy","0","uniform","0","undefined","0","left","25","25","25","0","0","25","25","0","0","25","25","25","0","25","0","Sun Oct 25 14:13:47 2020","The main experiment item","yes","SternbergTask-AL.osexp","/Users/annielenoir/Desktop","no","mono","no","18","no","white","no","no","768","legacy","13","11","/Users/annielenoir/Desktop/AL-subject-2.csv","legacy","6 1 2","Lentiform Loewenfeld","3.3.3","3","y","0","right","right","right","right","NA","1255","108082","17303","1255","NA","2","legacy","3","1024","2","48000","-16","experiment","2","even","2","317123","313358","314484","1604","223406","314627","264806","1772","206102","315775","319263","320519","109860","319263","NA","Sternberg Task","15","35967","26","yes","1024"
"59.25925925925926","59.25925925925926","1388.148148148148","1388.148148148148","black","experiment","legacy","legacy","legacy","0","uniform","1","undefined","1","right","26","26","26","0","0","26","26","0","0","26","26","26","0","26","0","Sun Oct 25 14:13:47 2020","The main experiment item","yes","SternbergTask-AL.osexp","/Users/annielenoir/Desktop","no","mono","no","18","no","white","no","no","768","legacy","14","11","/Users/annielenoir/Desktop/AL-subject-2.csv","legacy","4 2 6 9","Lentiform Loewenfeld","3.3.3","0","n","0","right","right","right","right","NA","1513","108082","17303","1513","NA","2","legacy","4","1024","2","48000","-16","experiment","2","even","7","324467","313358","321842","1604","223406","321982","320670","1772","206102","323117","326613","328127","109860","326613","NA","Sternberg Task","16","37480","27","yes","1024"
"60.714285714285715","60.714285714285715","1368.857142857143","1368.857142857143","black","experiment","legacy","legacy","legacy","0","uniform","1","undefined","1","left","27","27","27","0","0","27","27","0","0","27","27","27","0","27","0","Sun Oct 25 14:13:47 2020","The main experiment item","yes","SternbergTask-AL.osexp","/Users/annielenoir/Desktop","no","mono","no","18","no","white","no","no","768","legacy","15","11","/Users/annielenoir/Desktop/AL-subject-2.csv","legacy","1 4 9 3 2 5","Lentiform Loewenfeld","3.3.3","3","y","0","left","right","right","left","NA","848","108082","17303","848","NA","2","legacy","6","1024","2","48000","-16","experiment","2","even","9","332051","328277","329416","1604","223406","329556","320670","1772","206102","330703","334198","335047","109860","334198","NA","Sternberg Task","17","38328","28","yes","1024"
"62.06896551724138","62.06896551724138","1361","1361","black","experiment","legacy","legacy","legacy","0","uniform","1","undefined","1","left","28","28","28","0","0","28","28","0","0","28","28","28","0","28","0","Sun Oct 25 14:13:47 2020","The main experiment item","yes","SternbergTask-AL.osexp","/Users/annielenoir/Desktop","no","mono","no","18","no","white","no","no","768","legacy","16","11","/Users/annielenoir/Desktop/AL-subject-2.csv","legacy","3 5 9 6 2 4","Lentiform Loewenfeld","3.3.3","1","y","0","left","right","right","left","NA","1141","108082","17303","1141","NA","2","legacy","6","1024","2","48000","-16","experiment","2","even","3","338990","335199","336360","1604","223406","336500","320670","1772","206102","337640","341140","342281","109860","341140","NA","Sternberg Task","18","39469","29","yes","1024"
"63.333333333333336","63.333333333333336","1333.8","1333.8","black","experiment","legacy","legacy","legacy","0","uniform","1","undefined","1","left","29","29","29","0","0","29","29","0","0","29","29","29","0","29","0","Sun Oct 25 14:13:47 2020","The main experiment item","yes","SternbergTask-AL.osexp","/Users/annielenoir/Desktop","no","mono","no","18","no","white","no","no","768","legacy","17","11","/Users/annielenoir/Desktop/AL-subject-2.csv","legacy","5 7 3 6 2","Lentiform Loewenfeld","3.3.3","5","y","0","left","right","right","left","NA","545","108082","17303","545","NA","2","legacy","5","1024","2","48000","-16","experiment","2","even","2","346226","342439","343602","1604","223406","343741","320670","1772","206102","344877","348375","348921","109860","348374","NA","Sternberg Task","19","40014","30","yes","1024"
"61.29032258064516","61.29032258064516","1318.3548387096773","1318.3548387096773","black","experiment","legacy","legacy","legacy","0","uniform","0","undefined","0","left","30","30","30","0","0","30","30","0","0","30","30","30","0","30","0","Sun Oct 25 14:13:47 2020","The main experiment item","yes","SternbergTask-AL.osexp","/Users/annielenoir/Desktop","no","mono","no","18","no","white","no","no","768","legacy","18","11","/Users/annielenoir/Desktop/AL-subject-2.csv","legacy","2 5 4 8 7","Lentiform Loewenfeld","3.3.3","3","y","0","right","right","right","right","NA","855","108082","17303","855","NA","2","legacy","5","1024","2","48000","-16","experiment","2","even","4","352851","349068","350215","1604","223406","350357","320670","1772","206102","351499","354994","355850","109860","354994","NA","Sternberg Task","19","40869","31","yes","1024"
"59.375","59.375","1339.65625","1339.65625","black","experiment","legacy","legacy","legacy","0","uniform","0","undefined","0","right","31","31","31","0","0","31","31","0","0","31","31","31","0","31","0","Sun Oct 25 14:13:47 2020","The main experiment item","yes","SternbergTask-AL.osexp","/Users/annielenoir/Desktop","no","mono","no","18","no","white","no","no","768","legacy","19","11","/Users/annielenoir/Desktop/AL-subject-2.csv","legacy","5","Lentiform Loewenfeld","3.3.3","0","n","0","None","right","right","None","NA","2000","108082","17303","2000","NA","2","legacy","1","1024","2","48000","-16","experiment","2","even","8","359799","349068","357170","1604","223406","357310","356001","1772","206102","358450","361944","363944","109860","361944","NA","Sternberg Task","19","42869","32","yes","1024"
"60.60606060606061","60.60606060606061","1322.090909090909","1322.090909090909","black","experiment","legacy","legacy","legacy","0","uniform","1","undefined","1","left","32","32","32","0","0","32","32","0","0","32","32","32","0","32","0","Sun Oct 25 14:13:47 2020","The main experiment item","yes","SternbergTask-AL.osexp","/Users/annielenoir/Desktop","no","mono","no","18","no","white","no","no","768","legacy","20","11","/Users/annielenoir/Desktop/AL-subject-2.csv","legacy","6 7 9 3 1 2","Lentiform Loewenfeld","3.3.3","1","y","0","left","right","right","left","NA","760","108082","17303","760","NA","2","legacy","6","1024","2","48000","-16","experiment","2","even","6","367862","349068","365218","1604","223406","365359","364088","1772","206102","366508","370007","370768","109860","370007","NA","Sternberg Task","20","43629","33","yes","1024"
"58.8235294117647","58.8235294117647","1342.0294117647059","1342.0294117647059","black","experiment","legacy","legacy","legacy","0","uniform","0","undefined","0","right","33","33","33","0","0","33","33","0","0","33","33","33","0","33","0","Sun Oct 25 14:13:47 2020","The main experiment item","yes","SternbergTask-AL.osexp","/Users/annielenoir/Desktop","no","mono","no","18","no","white","no","no","768","legacy","21","11","/Users/annielenoir/Desktop/AL-subject-2.csv","legacy","9","Lentiform Loewenfeld","3.3.3","0","n","0","None","right","right","None","NA","2000","108082","17303","2000","NA","2","legacy","1","1024","2","48000","-16","experiment","2","even","6","374715","370920","372084","1604","223406","372224","364088","1772","206102","373364","376862","378862","109860","376861","NA","Sternberg Task","20","45629","34","yes","1024"
"57.142857142857146","57.142857142857146","1325","1325","black","experiment","legacy","legacy","legacy","0","uniform","0","undefined","0","right","34","34","34","0","0","34","34","0","0","34","34","34","0","34","0","Sun Oct 25 14:13:47 2020","The main experiment item","yes","SternbergTask-AL.osexp","/Users/annielenoir/Desktop","no","mono","no","18","no","white","no","no","768","legacy","22","11","/Users/annielenoir/Desktop/AL-subject-2.csv","legacy","7 4 2 8 1 9","Lentiform Loewenfeld","3.3.3","0","n","0","left","right","right","left","NA","746","108082","17303","746","NA","2","legacy","6","1024","2","48000","-16","experiment","2","even","5","382771","370920","380135","1604","223406","380277","379008","1772","206102","381423","384917","385664","109860","384917","NA","Sternberg Task","20","46375","35","yes","1024"
"55.55555555555556","55.55555555555556","1320.9444444444443","1320.9444444444443","black","experiment","legacy","legacy","legacy","0","uniform","0","undefined","0","right","35","35","35","0","0","35","35","0","0","35","35","35","0","35","0","Sun Oct 25 14:13:47 2020","The main experiment item","yes","SternbergTask-AL.osexp","/Users/annielenoir/Desktop","no","mono","no","18","no","white","no","no","768","legacy","23","11","/Users/annielenoir/Desktop/AL-subject-2.csv","legacy","9 5 3 2 8 6","Lentiform Loewenfeld","3.3.3","0","n","0","left","right","right","left","NA","1179","108082","17303","1179","NA","2","legacy","6","1024","2","48000","-16","experiment","2","even","7","389595","370920","386969","1604","223406","387106","385814","1772","206102","388246","391746","392926","109860","391746","NA","Sternberg Task","20","47554","36","yes","1024"
"56.75675675675676","56.75675675675676","1313.8648648648648","1313.8648648648648","black","experiment","legacy","legacy","legacy","0","uniform","1","undefined","1","right","36","36","36","0","0","36","36","0","0","36","36","36","0","36","0","Sun Oct 25 14:13:47 2020","The main experiment item","yes","SternbergTask-AL.osexp","/Users/annielenoir/Desktop","no","mono","no","18","no","white","no","no","768","legacy","24","11","/Users/annielenoir/Desktop/AL-subject-2.csv","legacy","4 8 1 2","Lentiform Loewenfeld","3.3.3","0","n","0","right","right","right","right","NA","1059","108082","17303","1059","NA","2","legacy","4","1024","2","48000","-16","experiment","2","even","7","396866","370920","394239","1604","223406","394378","393073","1772","206102","395517","399012","400072","109860","399012","NA","Sternberg Task","21","48613","37","yes","1024"
"57.89473684210526","57.89473684210526","1310.7894736842106","1310.7894736842106","black","experiment","legacy","legacy","legacy","0","uniform","1","undefined","1","left","37","37","37","0","0","37","37","0","0","37","37","37","0","37","0","Sun Oct 25 14:13:47 2020","The main experiment item","yes","SternbergTask-AL.osexp","/Users/annielenoir/Desktop","no","mono","no","18","no","white","no","no","768","legacy","25","11","/Users/annielenoir/Desktop/AL-subject-2.csv","legacy","2 3","Lentiform Loewenfeld","3.3.3","1","y","0","left","right","right","left","NA","1197","108082","17303","1197","NA","2","legacy","2","1024","2","48000","-16","experiment","2","even","2","404019","400225","401394","1604","223406","401534","393073","1772","206102","402671","406166","407364","109860","406166","NA","Sternberg Task","22","49810","38","yes","1024"
"58.97435897435897","58.97435897435897","1301.8461538461538","1301.8461538461538","black","experiment","legacy","legacy","legacy","0","uniform","1","undefined","1","left","38","38","38","0","0","38","38","0","0","38","38","38","0","38","0","Sun Oct 25 14:13:47 2020","The main experiment item","yes","SternbergTask-AL.osexp","/Users/annielenoir/Desktop","no","mono","no","18","no","white","no","no","768","legacy","26","11","/Users/annielenoir/Desktop/AL-subject-2.csv","legacy","8 5 4 7 3 1","Lentiform Loewenfeld","3.3.3","2","y","0","left","right","right","left","NA","962","108082","17303","962","NA","2","legacy","6","1024","2","48000","-16","experiment","2","even","5","411309","407512","408678","1604","223406","408819","393073","1772","206102","409960","413455","414418","109860","413455","NA","Sternberg Task","23","50772","39","yes","1024"
"60","60","1293.6","1293.6","black","experiment","legacy","legacy","legacy","0","uniform","1","undefined","1","right","39","39","39","0","0","39","39","0","0","39","39","39","0","39","0","Sun Oct 25 14:13:47 2020","The main experiment item","yes","SternbergTask-AL.osexp","/Users/annielenoir/Desktop","no","mono","no","18","no","white","no","no","768","legacy","27","11","/Users/annielenoir/Desktop/AL-subject-2.csv","legacy","2 6 4 3 9","Lentiform Loewenfeld","3.3.3","0","n","0","right","right","right","right","NA","972","108082","17303","972","NA","2","legacy","5","1024","2","48000","-16","experiment","2","even","1","418371","414570","415742","1604","223406","415883","393073","1772","206102","417022","420517","421489","109860","420517","NA","Sternberg Task","24","51744","40","yes","1024"
"60.97560975609756","60.97560975609756","1295.7073170731708","1295.7073170731708","black","experiment","legacy","legacy","legacy","0","uniform","1","undefined","1","left","40","40","40","0","0","40","40","0","0","40","40","40","0","40","0","Sun Oct 25 14:13:47 2020","The main experiment item","yes","SternbergTask-AL.osexp","/Users/annielenoir/Desktop","no","mono","no","18","no","white","no","no","768","legacy","28","11","/Users/annielenoir/Desktop/AL-subject-2.csv","legacy","8 5 3 7 4 6","Lentiform Loewenfeld","3.3.3","6","y","0","left","right","right","left","NA","1380","108082","17303","1380","NA","2","legacy","6","1024","2","48000","-16","experiment","2","even","6","425438","421640","422809","1604","223406","422950","393073","1772","206102","424088","427584","428965","109860","427584","NA","Sternberg Task","25","53124","41","yes","1024"
"61.904761904761905","61.904761904761905","1288.595238095238","1288.595238095238","black","experiment","legacy","legacy","legacy","0","uniform","1","undefined","1","left","41","41","41","0","0","41","41","0","0","41","41","41","0","41","0","Sun Oct 25 14:13:47 2020","The main experiment item","yes","SternbergTask-AL.osexp","/Users/annielenoir/Desktop","no","mono","no","18","no","white","no","no","768","legacy","29","11","/Users/annielenoir/Desktop/AL-subject-2.csv","legacy","7 6","Lentiform Loewenfeld","3.3.3","2","y","0","left","right","right","left","NA","997","108082","17303","997","NA","2","legacy","2","1024","2","48000","-16","experiment","2","even","6","432893","429113","430262","1604","223406","430401","393073","1772","206102","431545","435044","436042","109860","435043","NA","Sternberg Task","26","54121","42","yes","1024"
"62.7906976744186","62.7906976744186","1270.1627906976744","1270.1627906976744","black","experiment","legacy","legacy","legacy","0","uniform","1","undefined","1","left","42","42","42","0","0","42","42","0","0","42","42","42","0","42","0","Sun Oct 25 14:13:47 2020","The main experiment item","yes","SternbergTask-AL.osexp","/Users/annielenoir/Desktop","no","mono","no","18","no","white","no","no","768","legacy","30","11","/Users/annielenoir/Desktop/AL-subject-2.csv","legacy","4 6 2 5 1","Lentiform Loewenfeld","3.3.3","5","y","0","left","right","right","left","NA","496","108082","17303","496","NA","2","legacy","5","1024","2","48000","-16","experiment","2","even","1","439990","436198","437365","1604","223406","437504","393073","1772","206102","438642","442135","442631","109860","442135","NA","Sternberg Task","27","54617","43","yes","1024"
"63.63636363636363","63.63636363636363","1269.909090909091","1269.909090909091","black","experiment","legacy","legacy","legacy","0","uniform","1","undefined","1","right","43","43","43","0","0","43","43","0","0","43","43","43","0","43","0","Sun Oct 25 14:13:47 2020","The main experiment item","yes","SternbergTask-AL.osexp","/Users/annielenoir/Desktop","no","mono","no","18","no","white","no","no","768","legacy","31","11","/Users/annielenoir/Desktop/AL-subject-2.csv","legacy","7 3 2 8","Lentiform Loewenfeld","3.3.3","0","n","0","right","right","right","right","NA","1259","108082","17303","1259","NA","2","legacy","4","1024","2","48000","-16","experiment","2","even","4","446552","442779","443910","1604","223406","444052","393073","1772","206102","445205","448699","449959","109860","448699","NA","Sternberg Task","28","55876","44","yes","1024"
"62.22222222222222","62.22222222222222","1257.8444444444444","1257.8444444444444","black","experiment","legacy","legacy","legacy","0","uniform","0","undefined","0","left","44","44","44","0","0","44","44","0","0","44","44","44","0","44","0","Sun Oct 25 14:13:47 2020","The main experiment item","yes","SternbergTask-AL.osexp","/Users/annielenoir/Desktop","no","mono","no","18","no","white","no","no","768","legacy","32","11","/Users/annielenoir/Desktop/AL-subject-2.csv","legacy","5 2 9 6 1 7","Lentiform Loewenfeld","3.3.3","3","y","0","right","right","right","right","NA","727","108082","17303","727","NA","2","legacy","6","1024","2","48000","-16","experiment","2","even","9","453897","450109","451275","1604","223406","451414","393073","1772","206102","452556","456038","456766","109860","456038","NA","Sternberg Task","28","56603","45","yes","1024"
"60.869565217391305","60.869565217391305","1255.9347826086957","1255.9347826086957","black","experiment","legacy","legacy","legacy","0","uniform","0","undefined","0","right","45","45","45","0","0","45","45","0","0","45","45","45","0","45","0","Sun Oct 25 14:13:47 2020","The main experiment item","yes","SternbergTask-AL.osexp","/Users/annielenoir/Desktop","no","mono","no","18","no","white","no","no","768","legacy","33","11","/Users/annielenoir/Desktop/AL-subject-2.csv","legacy","1","Lentiform Loewenfeld","3.3.3","0","n","0","left","right","right","left","NA","1170","108082","17303","1170","NA","2","legacy","1","1024","2","48000","-16","experiment","2","even","7","460698","450109","458066","1604","223406","458214","456911","1772","206102","459357","462839","464010","109860","462839","NA","Sternberg Task","28","57773","46","yes","1024"
"61.702127659574465","61.702127659574465","1246.5531914893618","1246.5531914893618","black","experiment","legacy","legacy","legacy","0","uniform","1","undefined","1","right","46","46","46","0","0","46","46","0","0","46","46","46","0","46","0","Sun Oct 25 14:13:47 2020","The main experiment item","yes","SternbergTask-AL.osexp","/Users/annielenoir/Desktop","no","mono","no","18","no","white","no","no","768","legacy","34","11","/Users/annielenoir/Desktop/AL-subject-2.csv","legacy","2 3 8 5 6 7","Lentiform Loewenfeld","3.3.3","0","n","0","right","right","right","right","NA","815","108082","17303","815","NA","2","legacy","6","1024","2","48000","-16","experiment","2","even","1","467952","450109","465324","1604","223406","465464","464159","1772","206102","466603","470097","470918","109860","470097","NA","Sternberg Task","29","58588","47","yes","1024"
"62.5","62.5","1240.4583333333333","1240.4583333333333","black","experiment","legacy","legacy","legacy","0","uniform","1","undefined","1","right","47","47","47","0","0","47","47","0","0","47","47","47","0","47","0","Sun Oct 25 14:13:47 2020","The main experiment item","yes","SternbergTask-AL.osexp","/Users/annielenoir/Desktop","no","mono","no","18","no","white","no","no","768","legacy","35","11","/Users/annielenoir/Desktop/AL-subject-2.csv","legacy","3 4 9 6 7 8","Lentiform Loewenfeld","3.3.3","0","n","0","right","right","right","right","NA","954","108082","17303","954","NA","2","legacy","6","1024","2","48000","-16","experiment","2","even","2","474863","471067","472238","1604","223406","472379","464159","1772","206102","473518","477007","477961","109860","477007","NA","Sternberg Task","30","59542","48","yes","1024"
"63.265306122448976","63.265306122448976","1232.2857142857142","1232.2857142857142","black","experiment","legacy","legacy","legacy","0","uniform","1","undefined","1","right","48","48","48","0","0","48","48","0","0","48","48","48","0","48","0","Sun Oct 25 14:13:47 2020","The main experiment item","yes","SternbergTask-AL.osexp","/Users/annielenoir/Desktop","no","mono","no","18","no","white","no","no","768","legacy","36","11","/Users/annielenoir/Desktop/AL-subject-2.csv","legacy","6 9 5","Lentiform Loewenfeld","3.3.3","0","n","0","right","right","right","right","NA","840","108082","17303","840","NA","2","legacy","3","1024","2","48000","-16","experiment","2","even","8","481922","478110","479285","1604","223406","479430","464159","1772","206102","480575","484069","484910","109860","484068","NA","Sternberg Task","31","60382","49","yes","1024"
"62","62","1223.88","1223.88","black","experiment","legacy","legacy","legacy","0","uniform","0","undefined","0","left","49","49","49","0","0","49","49","0","0","49","49","49","0","49","0","Sun Oct 25 14:13:47 2020","The main experiment item","yes","SternbergTask-AL.osexp","/Users/annielenoir/Desktop","no","mono","no","18","no","white","no","no","768","legacy","37","11","/Users/annielenoir/Desktop/AL-subject-2.csv","legacy","9 1 6 7 8","Lentiform Loewenfeld","3.3.3","1","y","0","right","right","right","right","NA","812","108082","17303","812","NA","2","legacy","5","1024","2","48000","-16","experiment","2","even","9","488849","485059","486223","1604","223406","486362","464159","1772","206102","487500","490996","491809","109860","490996","NA","Sternberg Task","31","61194","50","yes","1024"
"62.745098039215684","62.745098039215684","1226.9411764705883","1226.9411764705883","black","experiment","legacy","legacy","legacy","0","uniform","1","undefined","1","left","50","50","50","0","0","50","50","0","0","50","50","50","0","50","0","Sun Oct 25 14:13:47 2020","The main experiment item","yes","SternbergTask-AL.osexp","/Users/annielenoir/Desktop","no","mono","no","18","no","white","no","no","768","legacy","38","11","/Users/annielenoir/Desktop/AL-subject-2.csv","legacy","9 5 3 8 4","Lentiform Loewenfeld","3.3.3","1","y","0","left","right","right","left","NA","1380","108082","17303","1380","NA","2","legacy","5","1024","2","48000","-16","experiment","2","even","9","495779","485059","493138","1604","223406","493286","491956","1772","206102","494432","497919","499300","109860","497919","NA","Sternberg Task","32","62574","51","yes","1024"
"63.46153846153846","63.46153846153846","1218.3076923076924","1218.3076923076924","black","experiment","legacy","legacy","legacy","0","uniform","1","undefined","1","left","51","51","51","0","0","51","51","0","0","51","51","51","0","51","0","Sun Oct 25 14:13:47 2020","The main experiment item","yes","SternbergTask-AL.osexp","/Users/annielenoir/Desktop","no","mono","no","18","no","white","no","no","768","legacy","39","11","/Users/annielenoir/Desktop/AL-subject-2.csv","legacy","8 9 5 7 1 6","Lentiform Loewenfeld","3.3.3","4","y","0","left","right","right","left","NA","778","108082","17303","778","NA","2","legacy","6","1024","2","48000","-16","experiment","2","even","7","503229","499448","500607","1604","223406","500743","491956","1772","206102","501881","505408","506186","109860","505408","NA","Sternberg Task","33","63352","52","yes","1024"
"64.15094339622641","64.15094339622641","1211.9622641509434","1211.9622641509434","black","experiment","legacy","legacy","legacy","0","uniform","1","undefined","1","left","52","52","52","0","0","52","52","0","0","52","52","52","0","52","0","Sun Oct 25 14:13:47 2020","The main experiment item","yes","SternbergTask-AL.osexp","/Users/annielenoir/Desktop","no","mono","no","18","no","white","no","no","768","legacy","40","11","/Users/annielenoir/Desktop/AL-subject-2.csv","legacy","7 8 6 3 1","Lentiform Loewenfeld","3.3.3","5","y","0","left","right","right","left","NA","882","108082","17303","882","NA","2","legacy","5","1024","2","48000","-16","experiment","2","even","1","510155","506359","507518","1604","223406","507660","491956","1772","206102","508800","512300","513183","109860","512300","NA","Sternberg Task","34","64234","53","yes","1024"
"62.96296296296296","62.96296296296296","1211.2777777777778","1211.2777777777778","black","experiment","legacy","legacy","legacy","0","uniform","0","undefined","0","right","53","53","53","0","0","53","53","0","0","53","53","53","0","53","0","Sun Oct 25 14:13:47 2020","The main experiment item","yes","SternbergTask-AL.osexp","/Users/annielenoir/Desktop","no","mono","no","18","no","white","no","no","768","legacy","41","11","/Users/annielenoir/Desktop/AL-subject-2.csv","legacy","7 1 8 4 9 3","Lentiform Loewenfeld","3.3.3","0","n","0","left","right","right","left","NA","1175","108082","17303","1175","NA","2","legacy","6","1024","2","48000","-16","experiment","2","even","6","517136","513338","514505","1604","223406","514649","491956","1772","206102","515788","519282","520458","109860","519282","NA","Sternberg Task","34","65409","54","yes","1024"
"61.81818181818182","61.81818181818182","1199.4727272727273","1199.4727272727273","black","experiment","legacy","legacy","legacy","0","uniform","0","undefined","0","left","54","54","54","0","0","54","54","0","0","54","54","54","0","54","0","Sun Oct 25 14:13:47 2020","The main experiment item","yes","SternbergTask-AL.osexp","/Users/annielenoir/Desktop","no","mono","no","18","no","white","no","no","768","legacy","42","11","/Users/annielenoir/Desktop/AL-subject-2.csv","legacy","2 8 5 1","Lentiform Loewenfeld","3.3.3","4","y","0","right","right","right","right","NA","562","108082","17303","562","NA","2","legacy","4","1024","2","48000","-16","experiment","2","even","1","524422","513338","521782","1604","223406","521930","520615","1772","206102","523072","526570","527133","109860","526570","NA","Sternberg Task","34","65971","55","yes","1024"
"62.5","62.5","1197","1197","black","experiment","legacy","legacy","legacy","0","uniform","1","undefined","1","left","55","55","55","0","0","55","55","0","0","55","55","55","0","55","0","Sun Oct 25 14:13:47 2020","The main experiment item","yes","SternbergTask-AL.osexp","/Users/annielenoir/Desktop","no","mono","no","18","no","white","no","no","768","legacy","43","11","/Users/annielenoir/Desktop/AL-subject-2.csv","legacy","6 5","Lentiform Loewenfeld","3.3.3","2","y","0","left","right","right","left","NA","1061","108082","17303","1061","NA","2","legacy","2","1024","2","48000","-16","experiment","2","even","5","531073","513338","528444","1604","223406","528584","527281","1772","206102","529725","533217","534279","109860","533217","NA","Sternberg Task","35","67032","56","yes","1024"
"63.1578947368421","63.1578947368421","1189.7719298245613","1189.7719298245613","black","experiment","legacy","legacy","legacy","0","uniform","1","undefined","1","left","56","56","56","0","0","56","56","0","0","56","56","56","0","56","0","Sun Oct 25 14:13:47 2020","The main experiment item","yes","SternbergTask-AL.osexp","/Users/annielenoir/Desktop","no","mono","no","18","no","white","no","no","768","legacy","44","11","/Users/annielenoir/Desktop/AL-subject-2.csv","legacy","4","Lentiform Loewenfeld","3.3.3","1","y","0","left","right","right","left","NA","785","108082","17303","785","NA","2","legacy","1","1024","2","48000","-16","experiment","2","even","4","538229","534428","535597","1604","223406","535743","527281","1772","206102","536881","540376","541162","109860","540376","NA","Sternberg Task","36","67817","57","yes","1024"
"63.793103448275865","63.793103448275865","1191.9655172413793","1191.9655172413793","black","experiment","legacy","legacy","legacy","0","uniform","1","undefined","1","right","57","57","57","0","0","57","57","0","0","57","57","57","0","57","0","Sun Oct 25 14:13:47 2020","The main experiment item","yes","SternbergTask-AL.osexp","/Users/annielenoir/Desktop","no","mono","no","18","no","white","no","no","768","legacy","45","11","/Users/annielenoir/Desktop/AL-subject-2.csv","legacy","8 4 3 5","Lentiform Loewenfeld","3.3.3","0","n","0","right","right","right","right","NA","1317","108082","17303","1317","NA","2","legacy","4","1024","2","48000","-16","experiment","2","even","6","545114","541316","542489","1604","223406","542627","527281","1772","206102","543767","547259","548577","109860","547259","NA","Sternberg Task","37","69134","58","yes","1024"
"64.40677966101696","64.40677966101696","1185.7627118644068","1185.7627118644068","black","experiment","legacy","legacy","legacy","0","uniform","1","undefined","1","left","58","58","58","0","0","58","58","0","0","58","58","58","0","58","0","Sun Oct 25 14:13:47 2020","The main experiment item","yes","SternbergTask-AL.osexp","/Users/annielenoir/Desktop","no","mono","no","18","no","white","no","no","768","legacy","46","11","/Users/annielenoir/Desktop/AL-subject-2.csv","legacy","7","Lentiform Loewenfeld","3.3.3","1","y","0","left","right","right","left","NA","826","108082","17303","826","NA","2","legacy","1","1024","2","48000","-16","experiment","2","even","7","552509","548724","549877","1604","223406","550012","527281","1772","206102","551160","554655","555482","109860","554655","NA","Sternberg Task","38","69960","59","yes","1024"
"65","65","1183.65","1183.65","black","experiment","legacy","legacy","legacy","0","uniform","1","undefined","1","left","59","59","59","0","0","59","59","0","0","59","59","59","0","59","0","Sun Oct 25 14:13:47 2020","The main experiment item","yes","SternbergTask-AL.osexp","/Users/annielenoir/Desktop","no","mono","no","18","no","white","no","no","768","legacy","47","11","/Users/annielenoir/Desktop/AL-subject-2.csv","legacy","8 5 1 3 9","Lentiform Loewenfeld","3.3.3","4","y","0","left","right","right","left","NA","1059","108082","17303","1059","NA","2","legacy","5","1024","2","48000","-16","experiment","2","even","3","559437","555633","556811","1604","223406","556950","527281","1772","206102","558087","561582","562642","109860","561582","NA","Sternberg Task","39","71019","60","yes","1024"
"63.9344262295082","63.9344262295082","1177.0819672131147","1177.0819672131147","black","experiment","legacy","legacy","legacy","0","uniform","0","undefined","0","right","60","60","60","0","0","60","60","0","0","60","60","60","0","60","0","Sun Oct 25 14:13:47 2020","The main experiment item","yes","SternbergTask-AL.osexp","/Users/annielenoir/Desktop","no","mono","no","18","no","white","no","no","768","legacy","48","11","/Users/annielenoir/Desktop/AL-subject-2.csv","legacy","1 3 2 6 9","Lentiform Loewenfeld","3.3.3","0","n","0","left","right","right","left","NA","783","108082","17303","783","NA","2","legacy","5","1024","2","48000","-16","experiment","2","even","5","566610","562789","563959","1604","223406","564095","527281","1772","206102","565232","568756","569540","109860","568756","NA","Sternberg Task","39","71802","61","yes","1024"
"64.51612903225806","64.51612903225806","1172.9354838709678","1172.9354838709678","black","experiment","legacy","legacy","legacy","0","uniform","1","undefined","1","left","61","61","61","0","0","61","61","0","0","61","61","61","0","61","0","Sun Oct 25 14:13:47 2020","The main experiment item","yes","SternbergTask-AL.osexp","/Users/annielenoir/Desktop","no","mono","no","18","no","white","no","no","768","legacy","49","11","/Users/annielenoir/Desktop/AL-subject-2.csv","legacy","7 2 3","Lentiform Loewenfeld","3.3.3","3","y","0","left","right","right","left","NA","920","108082","17303","920","NA","2","legacy","3","1024","2","48000","-16","experiment","2","even","3","573494","562789","570869","1604","223406","571007","569690","1772","206102","572146","575640","576561","109860","575640","NA","Sternberg Task","40","72722","62","yes","1024"
"65.07936507936508","65.07936507936508","1166.8253968253969","1166.8253968253969","black","experiment","legacy","legacy","legacy","0","uniform","1","undefined","1","left","62","62","62","0","0","62","62","0","0","62","62","62","0","62","0","Sun Oct 25 14:13:47 2020","The main experiment item","yes","SternbergTask-AL.osexp","/Users/annielenoir/Desktop","no","mono","no","18","no","white","no","no","768","legacy","50","11","/Users/annielenoir/Desktop/AL-subject-2.csv","legacy","3 4 9 6 2 9","Lentiform Loewenfeld","3.3.3","5","y","0","left","right","right","left","NA","788","108082","17303","788","NA","2","legacy","6","1024","2","48000","-16","experiment","2","even","2","580507","576712","577881","1604","223406","578019","569690","1772","206102","579158","582656","583445","109860","582655","NA","Sternberg Task","41","73510","63","yes","1024"
"65.625","65.625","1162.53125","1162.53125","black","experiment","legacy","legacy","legacy","0","uniform","1","undefined","1","left","63","63","63","0","0","63","63","0","0","63","63","63","0","63","0","Sun Oct 25 14:13:47 2020","The main experiment item","yes","SternbergTask-AL.osexp","/Users/annielenoir/Desktop","no","mono","no","18","no","white","no","no","768","legacy","51","11","/Users/annielenoir/Desktop/AL-subject-2.csv","legacy","8 1 6","Lentiform Loewenfeld","3.3.3","3","y","0","left","right","right","left","NA","892","108082","17303","892","NA","2","legacy","3","1024","2","48000","-16","experiment","2","even","6","587401","583596","584777","1604","223406","584915","569690","1772","206102","586052","589544","590437","109860","589544","NA","Sternberg Task","42","74402","64","yes","1024"
"66.15384615384616","66.15384615384616","1169.6923076923076","1169.6923076923076","black","experiment","legacy","legacy","legacy","0","uniform","1","undefined","1","left","64","64","64","0","0","64","64","0","0","64","64","64","0","64","0","Sun Oct 25 14:13:47 2020","The main experiment item","yes","SternbergTask-AL.osexp","/Users/annielenoir/Desktop","no","mono","no","18","no","white","no","no","768","legacy","52","11","/Users/annielenoir/Desktop/AL-subject-2.csv","legacy","9 5 8 1","Lentiform Loewenfeld","3.3.3","2","y","0","left","right","right","left","NA","1628","108082","17303","1628","NA","2","legacy","4","1024","2","48000","-16","experiment","2","even","5","594379","590584","591755","1604","223406","591893","569690","1772","206102","593030","596524","598153","109860","596524","NA","Sternberg Task","43","76030","65","yes","1024"
"65.15151515151516","65.15151515151516","1168.439393939394","1168.439393939394","black","experiment","legacy","legacy","legacy","0","uniform","0","undefined","0","right","65","65","65","0","0","65","65","0","0","65","65","65","0","65","0","Sun Oct 25 14:13:47 2020","The main experiment item","yes","SternbergTask-AL.osexp","/Users/annielenoir/Desktop","no","mono","no","18","no","white","no","no","768","legacy","53","11","/Users/annielenoir/Desktop/AL-subject-2.csv","legacy","6 2 9 3 8 4","Lentiform Loewenfeld","3.3.3","0","n","0","left","right","right","left","NA","1087","108082","17303","1087","NA","2","legacy","6","1024","2","48000","-16","experiment","2","even","1","602064","598305","599434","1604","223406","599571","569690","1772","206102","600717","604210","605298","109860","604210","NA","Sternberg Task","43","77117","66","yes","1024"
"64.17910447761194","64.17910447761194","1180.8507462686566","1180.8507462686566","black","experiment","legacy","legacy","legacy","0","uniform","0","undefined","0","right","66","66","66","0","0","66","66","0","0","66","66","66","0","66","0","Sun Oct 25 14:13:47 2020","The main experiment item","yes","SternbergTask-AL.osexp","/Users/annielenoir/Desktop","no","mono","no","18","no","white","no","no","768","legacy","54","11","/Users/annielenoir/Desktop/AL-subject-2.csv","legacy","6 9 4 5 3 2","Lentiform Loewenfeld","3.3.3","0","n","0","None","right","right","None","NA","2000","108082","17303","2000","NA","2","legacy","6","1024","2","48000","-16","experiment","2","even","8","609229","598305","606604","1604","223406","606740","605450","1772","206102","607880","611375","613375","109860","611375","NA","Sternberg Task","43","79117","67","yes","1024"
"63.23529411764706","63.23529411764706","1174.5","1174.5","black","experiment","legacy","legacy","legacy","0","uniform","0","undefined","0","right","67","67","67","0","0","67","67","0","0","67","67","67","0","67","0","Sun Oct 25 14:13:47 2020","The main experiment item","yes","SternbergTask-AL.osexp","/Users/annielenoir/Desktop","no","mono","no","18","no","white","no","no","768","legacy","55","11","/Users/annielenoir/Desktop/AL-subject-2.csv","legacy","7 1","Lentiform Loewenfeld","3.3.3","0","n","0","left","right","right","left","NA","749","108082","17303","749","NA","2","legacy","2","1024","2","48000","-16","experiment","2","even","8","617286","598305","614652","1604","223406","614793","613519","1772","206102","615938","619432","620182","109860","619432","NA","Sternberg Task","43","79866","68","yes","1024"
"63.768115942028984","63.768115942028984","1168.5797101449275","1168.5797101449275","black","experiment","legacy","legacy","legacy","0","uniform","1","undefined","1","right","68","68","68","0","0","68","68","0","0","68","68","68","0","68","0","Sun Oct 25 14:13:47 2020","The main experiment item","yes","SternbergTask-AL.osexp","/Users/annielenoir/Desktop","no","mono","no","18","no","white","no","no","768","legacy","56","11","/Users/annielenoir/Desktop/AL-subject-2.csv","legacy","2 7 5","Lentiform Loewenfeld","3.3.3","0","n","0","right","right","right","right","NA","766","108082","17303","766","NA","2","legacy","3","1024","2","48000","-16","experiment","2","even","8","624103","598305","621483","1604","223406","621620","620328","1772","206102","622757","626250","627016","109860","626250","NA","Sternberg Task","44","80632","69","yes","1024"
"64.28571428571429","64.28571428571429","1168.9","1168.9","black","experiment","legacy","legacy","legacy","0","uniform","1","undefined","1","right","69","69","69","0","0","69","69","0","0","69","69","69","0","69","0","Sun Oct 25 14:13:47 2020","The main experiment item","yes","SternbergTask-AL.osexp","/Users/annielenoir/Desktop","no","mono","no","18","no","white","no","no","768","legacy","57","11","/Users/annielenoir/Desktop/AL-subject-2.csv","legacy","1 6 4 3 9 7","Lentiform Loewenfeld","3.3.3","0","n","0","right","right","right","right","NA","1191","108082","17303","1191","NA","2","legacy","6","1024","2","48000","-16","experiment","2","even","8","630949","627167","628325","1604","223406","628464","620328","1772","206102","629601","633092","634284","109860","633092","NA","Sternberg Task","45","81823","70","yes","1024"
"64.78873239436619","64.78873239436619","1175.4084507042253","1175.4084507042253","black","experiment","legacy","legacy","legacy","0","uniform","1","undefined","1","right","70","70","70","0","0","70","70","0","0","70","70","70","0","70","0","Sun Oct 25 14:13:47 2020","The main experiment item","yes","SternbergTask-AL.osexp","/Users/annielenoir/Desktop","no","mono","no","18","no","white","no","no","768","legacy","58","11","/Users/annielenoir/Desktop/AL-subject-2.csv","legacy","6 8 4","Lentiform Loewenfeld","3.3.3","0","n","0","right","right","right","right","NA","1631","108082","17303","1631","NA","2","legacy","3","1024","2","48000","-16","experiment","2","even","1","638218","634434","635590","1604","223406","635728","620328","1772","206102","636865","640363","641995","109860","640363","NA","Sternberg Task","46","83454","71","yes","1024"
"65.27777777777777","65.27777777777777","1175.5416666666667","1175.5416666666667","black","experiment","legacy","legacy","legacy","0","uniform","1","undefined","1","right","71","71","71","0","0","71","71","0","0","71","71","71","0","71","0","Sun Oct 25 14:13:47 2020","The main experiment item","yes","SternbergTask-AL.osexp","/Users/annielenoir/Desktop","no","mono","no","18","no","white","no","no","768","legacy","59","11","/Users/annielenoir/Desktop/AL-subject-2.csv","legacy","7 1 5 6 3","Lentiform Loewenfeld","3.3.3","0","n","0","right","right","right","right","NA","1185","108082","17303","1185","NA","2","legacy","5","1024","2","48000","-16","experiment","2","even","8","645900","642142","643269","1604","223406","643407","620328","1772","206102","644552","648044","649230","109860","648044","NA","Sternberg Task","47","84639","72","yes","1024"
"65.75342465753425","65.75342465753425","1176.2328767123288","1176.2328767123288","black","experiment","legacy","legacy","legacy","0","uniform","1","undefined","1","left","72","72","72","0","0","72","72","0","0","72","72","72","0","72","0","Sun Oct 25 14:13:47 2020","The main experiment item","yes","SternbergTask-AL.osexp","/Users/annielenoir/Desktop","no","mono","no","18","no","white","no","no","768","legacy","60","11","/Users/annielenoir/Desktop/AL-subject-2.csv","legacy","6 9 3 1","Lentiform Loewenfeld","3.3.3","4","y","0","left","right","right","left","NA","1226","108082","17303","1226","NA","2","legacy","4","1024","2","48000","-16","experiment","2","even","1","653155","649375","650528","1604","223406","650664","620328","1772","206102","651807","655301","656527","109860","655301","NA","Sternberg Task","48","85865","73","yes","1024"
"64.86486486486487","64.86486486486487","1187.3648648648648","1187.3648648648648","black","experiment","legacy","legacy","legacy","0","uniform","0","undefined","0","left","73","73","73","0","0","73","73","0","0","73","73","73","0","73","0","Sun Oct 25 14:13:47 2020","The main experiment item","yes","SternbergTask-AL.osexp","/Users/annielenoir/Desktop","no","mono","no","18","no","white","no","no","768","legacy","61","11","/Users/annielenoir/Desktop/AL-subject-2.csv","legacy","8 9 6 1","Lentiform Loewenfeld","3.3.3","2","y","0","None","right","right","None","NA","2000","108082","17303","2000","NA","2","legacy","4","1024","2","48000","-16","experiment","2","even","9","660460","656678","657836","1604","223406","657972","620328","1772","206102","659110","662608","664608","109860","662608","NA","Sternberg Task","48","87865","74","yes","1024"
"64","64","1182.2266666666667","1182.2266666666667","black","experiment","legacy","legacy","legacy","0","uniform","0","undefined","0","right","74","74","74","0","0","74","74","0","0","74","74","74","0","74","0","Sun Oct 25 14:13:47 2020","The main experiment item","yes","SternbergTask-AL.osexp","/Users/annielenoir/Desktop","no","mono","no","18","no","white","no","no","768","legacy","62","11","/Users/annielenoir/Desktop/AL-subject-2.csv","legacy","1 4 9 2 5","Lentiform Loewenfeld","3.3.3","0","n","0","left","right","right","left","NA","802","108082","17303","802","NA","2","legacy","5","1024","2","48000","-16","experiment","2","even","7","668516","656678","665883","1604","223406","666020","664755","1772","206102","667168","670662","671465","109860","670662","NA","Sternberg Task","48","88667","75","yes","1024"
"63.1578947368421","63.1578947368421","1178.1315789473683","1178.1315789473683","black","experiment","legacy","legacy","legacy","0","uniform","0","undefined","0","left","75","75","75","0","0","75","75","0","0","75","75","75","0","75","0","Sun Oct 25 14:13:47 2020","The main experiment item","yes","SternbergTask-AL.osexp","/Users/annielenoir/Desktop","no","mono","no","18","no","white","no","no","768","legacy","63","11","/Users/annielenoir/Desktop/AL-subject-2.csv","legacy","2 4 6 9","Lentiform Loewenfeld","3.3.3","3","y","0","right","right","right","right","NA","871","108082","17303","871","NA","2","legacy","4","1024","2","48000","-16","experiment","2","even","6","675402","656678","672776","1604","223406","672911","671615","1772","206102","674053","677552","678423","109860","677552","NA","Sternberg Task","48","89538","76","yes","1024"
"63.63636363636363","63.63636363636363","1172.922077922078","1172.922077922078","black","experiment","legacy","legacy","legacy","0","uniform","1","undefined","1","left","76","76","76","0","0","76","76","0","0","76","76","76","0","76","0","Sun Oct 25 14:13:47 2020","The main experiment item","yes","SternbergTask-AL.osexp","/Users/annielenoir/Desktop","no","mono","no","18","no","white","no","no","768","legacy","64","11","/Users/annielenoir/Desktop/AL-subject-2.csv","legacy","4 9 7 8 5 3","Lentiform Loewenfeld","3.3.3","4","y","0","left","right","right","left","NA","777","108082","17303","777","NA","2","legacy","6","1024","2","48000","-16","experiment","2","even","8","682363","656678","679739","1604","223406","679877","678573","1772","206102","681014","684508","685287","109860","684508","NA","Sternberg Task","49","90315","77","yes","1024"
"64.1025641025641","64.1025641025641","1172.948717948718","1172.948717948718","black","experiment","legacy","legacy","legacy","0","uniform","1","undefined","1","right","77","77","77","0","0","77","77","0","0","77","77","77","0","77","0","Sun Oct 25 14:13:47 2020","The main experiment item","yes","SternbergTask-AL.osexp","/Users/annielenoir/Desktop","no","mono","no","18","no","white","no","no","768","legacy","65","11","/Users/annielenoir/Desktop/AL-subject-2.csv","legacy","1 6 4","Lentiform Loewenfeld","3.3.3","0","n","0","right","right","right","right","NA","1175","108082","17303","1175","NA","2","legacy","3","1024","2","48000","-16","experiment","2","even","7","689231","685436","686604","1604","223406","686743","678573","1772","206102","687882","691377","692553","109860","691377","NA","Sternberg Task","50","91490","78","yes","1024"
"64.55696202531645","64.55696202531645","1174.1012658227849","1174.1012658227849","black","experiment","legacy","legacy","legacy","0","uniform","1","undefined","1","right","78","78","78","0","0","78","78","0","0","78","78","78","0","78","0","Sun Oct 25 14:13:47 2020","The main experiment item","yes","SternbergTask-AL.osexp","/Users/annielenoir/Desktop","no","mono","no","18","no","white","no","no","768","legacy","66","11","/Users/annielenoir/Desktop/AL-subject-2.csv","legacy","3 4 2","Lentiform Loewenfeld","3.3.3","0","n","0","right","right","right","right","NA","1264","108082","17303","1264","NA","2","legacy","3","1024","2","48000","-16","experiment","2","even","5","696489","692708","693868","1604","223406","694003","678573","1772","206102","695140","698634","699899","109860","698634","NA","Sternberg Task","51","92754","79","yes","1024"
"63.75","63.75","1173.6","1173.6","black","experiment","legacy","legacy","legacy","0","uniform","0","undefined","0","left","79","79","79","0","0","79","79","0","0","79","79","79","0","79","0","Sun Oct 25 14:13:47 2020","The main experiment item","yes","SternbergTask-AL.osexp","/Users/annielenoir/Desktop","no","mono","no","18","no","white","no","no","768","legacy","67","11","/Users/annielenoir/Desktop/AL-subject-2.csv","legacy","6 9 7 4 5 1","Lentiform Loewenfeld","3.3.3","2","y","0","right","right","right","right","NA","1134","108082","17303","1134","NA","2","legacy","6","1024","2","48000","-16","experiment","2","even","9","703828","700045","701205","1604","223406","701342","678573","1772","206102","702480","705973","707108","109860","705973","NA","Sternberg Task","51","93888","80","yes","1024"
"62.96296296296296","62.96296296296296","1166.8641975308642","1166.8641975308642","black","experiment","legacy","legacy","legacy","0","uniform","0","undefined","0","right","80","80","80","0","0","80","80","0","0","80","80","80","0","80","0","Sun Oct 25 14:13:47 2020","The main experiment item","yes","SternbergTask-AL.osexp","/Users/annielenoir/Desktop","no","mono","no","18","no","white","no","no","768","legacy","68","11","/Users/annielenoir/Desktop/AL-subject-2.csv","legacy","8 9","Lentiform Loewenfeld","3.3.3","0","n","0","left","right","right","left","NA","628","108082","17303","628","NA","2","legacy","2","1024","2","48000","-16","experiment","2","even","5","711029","700045","708419","1604","223406","708556","707255","1772","206102","709692","713165","713794","109860","713165","NA","Sternberg Task","51","94516","81","yes","1024"
"62.19512195121951","62.19512195121951","1162.7560975609756","1162.7560975609756","black","experiment","legacy","legacy","legacy","0","uniform","0","undefined","0","left","81","81","81","0","0","81","81","0","0","81","81","81","0","81","0","Sun Oct 25 14:13:47 2020","The main experiment item","yes","SternbergTask-AL.osexp","/Users/annielenoir/Desktop","no","mono","no","18","no","white","no","no","768","legacy","69","11","/Users/annielenoir/Desktop/AL-subject-2.csv","legacy","6 7 8 5","Lentiform Loewenfeld","3.3.3","3","y","0","right","right","right","right","NA","830","108082","17303","830","NA","2","legacy","4","1024","2","48000","-16","experiment","2","even","8","717688","700045","715067","1604","223406","715209","713943","1772","206102","716350","719823","720654","109860","719823","NA","Sternberg Task","51","95346","82","yes","1024"
"62.65060240963855","62.65060240963855","1154.6746987951808","1154.6746987951808","black","experiment","legacy","legacy","legacy","0","uniform","1","undefined","1","left","82","82","82","0","0","82","82","0","0","82","82","82","0","82","0","Sun Oct 25 14:13:47 2020","The main experiment item","yes","SternbergTask-AL.osexp","/Users/annielenoir/Desktop","no","mono","no","18","no","white","no","no","768","legacy","70","11","/Users/annielenoir/Desktop/AL-subject-2.csv","legacy","3 9 7 6 4","Lentiform Loewenfeld","3.3.3","3","y","0","left","right","right","left","NA","492","108082","17303","492","NA","2","legacy","5","1024","2","48000","-16","experiment","2","even","7","724585","700045","721960","1604","223406","722099","720807","1772","206102","723238","726722","727215","109860","726722","NA","Sternberg Task","52","95838","83","yes","1024"
"63.095238095238095","63.095238095238095","1151.3690476190477","1151.3690476190477","black","experiment","legacy","legacy","legacy","0","uniform","1","undefined","1","right","83","83","83","0","0","83","83","0","0","83","83","83","0","83","0","Sun Oct 25 14:13:47 2020","The main experiment item","yes","SternbergTask-AL.osexp","/Users/annielenoir/Desktop","no","mono","no","18","no","white","no","no","768","legacy","71","11","/Users/annielenoir/Desktop/AL-subject-2.csv","legacy","1 7 8 3 9","Lentiform Loewenfeld","3.3.3","0","n","0","right","right","right","right","NA","877","108082","17303","877","NA","2","legacy","5","1024","2","48000","-16","experiment","2","even","2","731122","727360","728496","1604","223406","728635","720807","1772","206102","729785","733269","734147","109860","733269","NA","Sternberg Task","53","96715","84","yes","1024"
"63.529411764705884","63.529411764705884","1150.2588235294118","1150.2588235294118","black","experiment","legacy","legacy","legacy","0","uniform","1","undefined","1","left","84","84","84","0","0","84","84","0","0","84","84","84","0","84","0","Sun Oct 25 14:13:47 2020","The main experiment item","yes","SternbergTask-AL.osexp","/Users/annielenoir/Desktop","no","mono","no","18","no","white","no","no","768","legacy","72","11","/Users/annielenoir/Desktop/AL-subject-2.csv","legacy","5 2 6","Lentiform Loewenfeld","3.3.3","2","y","0","left","right","right","left","NA","1057","108082","17303","1057","NA","2","legacy","3","1024","2","48000","-16","experiment","2","even","2","738085","734294","735455","1604","223406","735596","720807","1772","206102","736738","740227","741285","109860","740227","NA","Sternberg Task","54","97772","85","yes","1024"
"63.95348837209303","63.95348837209303","1150.3372093023256","1150.3372093023256","black","experiment","legacy","legacy","legacy","0","uniform","1","undefined","1","right","85","85","85","0","0","85","85","0","0","85","85","85","0","85","0","Sun Oct 25 14:13:47 2020","The main experiment item","yes","SternbergTask-AL.osexp","/Users/annielenoir/Desktop","no","mono","no","18","no","white","no","no","768","legacy","73","11","/Users/annielenoir/Desktop/AL-subject-2.csv","legacy","2 8 7 9 5 3","Lentiform Loewenfeld","3.3.3","0","n","0","right","right","right","right","NA","1157","108082","17303","1157","NA","2","legacy","6","1024","2","48000","-16","experiment","2","even","6","745238","741434","742609","1604","223406","742745","720807","1772","206102","743888","747383","748542","109860","747383","NA","Sternberg Task","55","98929","86","yes","1024"
"64.36781609195403","64.36781609195403","1149.0919540229886","1149.0919540229886","black","experiment","legacy","legacy","legacy","0","uniform","1","undefined","1","left","86","86","86","0","0","86","86","0","0","86","86","86","0","86","0","Sun Oct 25 14:13:47 2020","The main experiment item","yes","SternbergTask-AL.osexp","/Users/annielenoir/Desktop","no","mono","no","18","no","white","no","no","768","legacy","74","11","/Users/annielenoir/Desktop/AL-subject-2.csv","legacy","8 7 3","Lentiform Loewenfeld","3.3.3","1","y","0","left","right","right","left","NA","1042","108082","17303","1042","NA","2","legacy","3","1024","2","48000","-16","experiment","2","even","8","752482","748690","749862","1604","223406","749999","720807","1772","206102","751134","754627","755670","109860","754627","NA","Sternberg Task","56","99971","87","yes","1024"
"64.77272727272727","64.77272727272727","1147.4431818181818","1147.4431818181818","black","experiment","legacy","legacy","legacy","0","uniform","1","undefined","1","right","87","87","87","0","0","87","87","0","0","87","87","87","0","87","0","Sun Oct 25 14:13:47 2020","The main experiment item","yes","SternbergTask-AL.osexp","/Users/annielenoir/Desktop","no","mono","no","18","no","white","no","no","768","legacy","75","11","/Users/annielenoir/Desktop/AL-subject-2.csv","legacy","6 9 4 5 2","Lentiform Loewenfeld","3.3.3","0","n","0","right","right","right","right","NA","1004","108082","17303","1004","NA","2","legacy","5","1024","2","48000","-16","experiment","2","even","1","759605","755817","756981","1604","223406","757118","720807","1772","206102","758257","761751","762756","109860","761751","NA","Sternberg Task","57","100975","88","yes","1024"
"65.1685393258427","65.1685393258427","1148.247191011236","1148.247191011236","black","experiment","legacy","legacy","legacy","0","uniform","1","undefined","1","left","88","88","88","0","0","88","88","0","0","88","88","88","0","88","0","Sun Oct 25 14:13:47 2020","The main experiment item","yes","SternbergTask-AL.osexp","/Users/annielenoir/Desktop","no","mono","no","18","no","white","no","no","768","legacy","76","11","/Users/annielenoir/Desktop/AL-subject-2.csv","legacy","7 4 2 6 3 5","Lentiform Loewenfeld","3.3.3","6","y","0","left","right","right","left","NA","1219","108082","17303","1219","NA","2","legacy","6","1024","2","48000","-16","experiment","2","even","5","766697","762910","764071","1604","223406","764211","720807","1772","206102","765349","768843","770063","109860","768843","NA","Sternberg Task","58","102194","89","yes","1024"
"64.44444444444444","64.44444444444444","1149.588888888889","1149.588888888889","black","experiment","legacy","legacy","legacy","0","uniform","0","undefined","0","right","89","89","89","0","0","89","89","0","0","89","89","89","0","89","0","Sun Oct 25 14:13:47 2020","The main experiment item","yes","SternbergTask-AL.osexp","/Users/annielenoir/Desktop","no","mono","no","18","no","white","no","no","768","legacy","77","11","/Users/annielenoir/Desktop/AL-subject-2.csv","legacy","8 5 7 3 6","Lentiform Loewenfeld","3.3.3","0","n","0","left","right","right","left","NA","1269","108082","17303","1269","NA","2","legacy","5","1024","2","48000","-16","experiment","2","even","9","774009","770212","771383","1604","223406","771521","720807","1772","206102","772661","776155","777425","109860","776155","NA","Sternberg Task","58","103463","90","yes","1024"
"64.83516483516483","64.83516483516483","1149.6153846153845","1149.6153846153845","black","experiment","legacy","legacy","legacy","0","uniform","1","undefined","1","left","90","90","90","0","0","90","90","0","0","90","90","90","0","90","0","Sun Oct 25 14:13:47 2020","The main experiment item","yes","SternbergTask-AL.osexp","/Users/annielenoir/Desktop","no","mono","no","18","no","white","no","no","768","legacy","78","11","/Users/annielenoir/Desktop/AL-subject-2.csv","legacy","9 1 7 2","Lentiform Loewenfeld","3.3.3","2","y","0","left","right","right","left","NA","1152","108082","17303","1152","NA","2","legacy","4","1024","2","48000","-16","experiment","2","even","1","781357","770212","778729","1604","223406","778869","777573","1772","206102","780007","783503","784656","109860","783503","NA","Sternberg Task","59","104615","91","yes","1024"
"65.21739130434783","65.21739130434783","1148.6739130434783","1148.6739130434783","black","experiment","legacy","legacy","legacy","0","uniform","1","undefined","1","right","91","91","91","0","0","91","91","0","0","91","91","91","0","91","0","Sun Oct 25 14:13:47 2020","The main experiment item","yes","SternbergTask-AL.osexp","/Users/annielenoir/Desktop","no","mono","no","18","no","white","no","no","768","legacy","79","11","/Users/annielenoir/Desktop/AL-subject-2.csv","legacy","9 8 2 7 4","Lentiform Loewenfeld","3.3.3","0","n","0","right","right","right","right","NA","1063","108082","17303","1063","NA","2","legacy","5","1024","2","48000","-16","experiment","2","even","5","788588","784808","785961","1604","223406","786104","777573","1772","206102","787246","790728","791792","109860","790728","NA","Sternberg Task","60","105678","92","yes","1024"
"65.59139784946237","65.59139784946237","1148.8924731182797","1148.8924731182797","black","experiment","legacy","legacy","legacy","0","uniform","1","undefined","1","left","92","92","92","0","0","92","92","0","0","92","92","92","0","92","0","Sun Oct 25 14:13:47 2020","The main experiment item","yes","SternbergTask-AL.osexp","/Users/annielenoir/Desktop","no","mono","no","18","no","white","no","no","768","legacy","80","11","/Users/annielenoir/Desktop/AL-subject-2.csv","legacy","8","Lentiform Loewenfeld","3.3.3","1","y","0","left","right","right","left","NA","1169","108082","17303","1169","NA","2","legacy","1","1024","2","48000","-16","experiment","2","even","8","795740","791942","793110","1604","223406","793253","777573","1772","206102","794393","797885","799055","109860","797885","NA","Sternberg Task","61","106847","93","yes","1024"
"65.95744680851064","65.95744680851064","1146.5851063829787","1146.5851063829787","black","experiment","legacy","legacy","legacy","0","uniform","1","undefined","1","left","93","93","93","0","0","93","93","0","0","93","93","93","0","93","0","Sun Oct 25 14:13:47 2020","The main experiment item","yes","SternbergTask-AL.osexp","/Users/annielenoir/Desktop","no","mono","no","18","no","white","no","no","768","legacy","81","11","/Users/annielenoir/Desktop/AL-subject-2.csv","legacy","6 2","Lentiform Loewenfeld","3.3.3","1","y","0","left","right","right","left","NA","932","108082","17303","932","NA","2","legacy","2","1024","2","48000","-16","experiment","2","even","6","802975","799204","800355","1604","223406","800492","777573","1772","206102","801626","805119","806052","109860","805119","NA","Sternberg Task","62","107779","94","yes","1024"
"66.3157894736842","66.3157894736842","1148.842105263158","1148.842105263158","black","experiment","legacy","legacy","legacy","0","uniform","1","undefined","1","right","94","94","94","0","0","94","94","0","0","94","94","94","0","94","0","Sun Oct 25 14:13:47 2020","The main experiment item","yes","SternbergTask-AL.osexp","/Users/annielenoir/Desktop","no","mono","no","18","no","white","no","no","768","legacy","82","11","/Users/annielenoir/Desktop/AL-subject-2.csv","legacy","1 5 3 2 8","Lentiform Loewenfeld","3.3.3","0","n","0","right","right","right","right","NA","1361","108082","17303","1361","NA","2","legacy","5","1024","2","48000","-16","experiment","2","even","4","809992","806203","807367","1604","223406","807506","777573","1772","206102","808646","812136","813498","109860","812136","NA","Sternberg Task","63","109140","95","yes","1024"
"66.66666666666667","66.66666666666667","1151.6354166666667","1151.6354166666667","black","experiment","legacy","legacy","legacy","0","uniform","1","undefined","1","left","95","95","95","0","0","95","95","0","0","95","95","95","0","95","0","Sun Oct 25 14:13:47 2020","The main experiment item","yes","SternbergTask-AL.osexp","/Users/annielenoir/Desktop","no","mono","no","18","no","white","no","no","768","legacy","83","11","/Users/annielenoir/Desktop/AL-subject-2.csv","legacy","4 1 8 7 5","Lentiform Loewenfeld","3.3.3","3","y","0","left","right","right","left","NA","1417","108082","17303","1417","NA","2","legacy","5","1024","2","48000","-16","experiment","2","even","8","817431","813647","814804","1604","223406","814941","777573","1772","206102","816083","819577","820995","109860","819577","NA","Sternberg Task","64","110557","96","yes","1024"
"65.97938144329896","65.97938144329896","1154.278350515464","1154.278350515464","black","experiment","legacy","legacy","legacy","0","uniform","0","undefined","0","right","96","96","96","0","0","96","96","0","0","96","96","96","0","96","0","Sun Oct 25 14:13:47 2020","The main experiment item","yes","SternbergTask-AL.osexp","/Users/annielenoir/Desktop","no","mono","no","18","no","white","no","no","768","legacy","84","11","/Users/annielenoir/Desktop/AL-subject-2.csv","legacy","8 5 4 2 9 6","Lentiform Loewenfeld","3.3.3","0","n","0","left","right","right","left","NA","1408","108082","17303","1408","NA","2","legacy","6","1024","2","48000","-16","experiment","2","even","3","824902","821133","822273","1604","223406","822409","777573","1772","206102","823555","827046","828455","109860","827046","NA","Sternberg Task","64","111965","97","yes","1024"
"66.3265306122449","66.3265306122449","1157.9795918367347","1157.9795918367347","black","experiment","legacy","legacy","legacy","0","uniform","1","undefined","1","right","97","97","97","0","0","97","97","0","0","97","97","97","0","97","0","Sun Oct 25 14:13:47 2020","The main experiment item","yes","SternbergTask-AL.osexp","/Users/annielenoir/Desktop","no","mono","no","18","no","white","no","no","768","legacy","85","11","/Users/annielenoir/Desktop/AL-subject-2.csv","legacy","2 8 9 4 1","Lentiform Loewenfeld","3.3.3","0","n","0","right","right","right","right","NA","1517","108082","17303","1517","NA","2","legacy","5","1024","2","48000","-16","experiment","2","even","5","832377","821133","829746","1604","223406","829882","828604","1772","206102","831027","834522","836040","109860","834522","NA","Sternberg Task","65","113482","98","yes","1024"
"66.66666666666667","66.66666666666667","1158.2323232323233","1158.2323232323233","black","experiment","legacy","legacy","legacy","0","uniform","1","undefined","1","left","98","98","98","0","0","98","98","0","0","98","98","98","0","98","0","Sun Oct 25 14:13:47 2020","The main experiment item","yes","SternbergTask-AL.osexp","/Users/annielenoir/Desktop","no","mono","no","18","no","white","no","no","768","legacy","86","11","/Users/annielenoir/Desktop/AL-subject-2.csv","legacy","9 4 2","Lentiform Loewenfeld","3.3.3","1","y","0","left","right","right","left","NA","1183","108082","17303","1183","NA","2","legacy","3","1024","2","48000","-16","experiment","2","even","9","839949","836185","837319","1604","223406","837457","828604","1772","206102","838602","842094","843278","109860","842094","NA","Sternberg Task","66","114665","99","yes","1024"
"67","67","1155.65","1155.65","black","experiment","legacy","legacy","legacy","0","uniform","1","undefined","1","right","99","99","99","0","0","99","99","0","0","99","99","99","0","99","0","Sun Oct 25 14:13:47 2020","The main experiment item","yes","SternbergTask-AL.osexp","/Users/annielenoir/Desktop","no","mono","no","18","no","white","no","no","768","legacy","87","11","/Users/annielenoir/Desktop/AL-subject-2.csv","legacy","2 8 9","Lentiform Loewenfeld","3.3.3","0","n","0","right","right","right","right","NA","900","108082","17303","900","NA","2","legacy","3","1024","2","48000","-16","experiment","2","even","6","847197","843432","844565","1604","223406","844702","828604","1772","206102","845848","849343","850244","109860","849343","NA","Sternberg Task","67","115565","100","yes","1024"
"67.32673267326733","67.32673267326733","1158.1782178217823","1158.1782178217823","black","experiment","legacy","legacy","legacy","0","uniform","1","undefined","1","right","100","100","100","0","0","100","100","0","0","100","100","100","0","100","0","Sun Oct 25 14:13:47 2020","The main experiment item","yes","SternbergTask-AL.osexp","/Users/annielenoir/Desktop","no","mono","no","18","no","white","no","no","768","legacy","88","11","/Users/annielenoir/Desktop/AL-subject-2.csv","legacy","2 5 1 4","Lentiform Loewenfeld","3.3.3","0","n","0","right","right","right","right","NA","1411","108082","17303","1411","NA","2","legacy","4","1024","2","48000","-16","experiment","2","even","6","854180","850391","851550","1604","223406","851688","828604","1772","206102","852831","856325","857737","109860","856325","NA","Sternberg Task","68","116976","101","yes","1024"
"67.6470588235294","67.6470588235294","1157.6176470588234","1157.6176470588234","black","experiment","legacy","legacy","legacy","0","uniform","1","undefined","1","right","101","101","101","0","0","101","101","0","0","101","101","101","0","101","0","Sun Oct 25 14:13:47 2020","The main experiment item","yes","SternbergTask-AL.osexp","/Users/annielenoir/Desktop","no","mono","no","18","no","white","no","no","768","legacy","89","11","/Users/annielenoir/Desktop/AL-subject-2.csv","legacy","7 9","Lentiform Loewenfeld","3.3.3","0","n","0","right","right","right","right","NA","1101","108082","17303","1101","NA","2","legacy","2","1024","2","48000","-16","experiment","2","even","1","861668","857887","859041","1604","223406","859178","828604","1772","206102","860319","863818","864921","109860","863818","NA","Sternberg Task","69","118077","102","yes","1024"
"67.96116504854369","67.96116504854369","1161.2524271844661","1161.2524271844661","black","experiment","legacy","legacy","legacy","0","uniform","1","undefined","1","right","102","102","102","0","0","102","102","0","0","102","102","102","0","102","0","Sun Oct 25 14:13:47 2020","The main experiment item","yes","SternbergTask-AL.osexp","/Users/annielenoir/Desktop","no","mono","no","18","no","white","no","no","768","legacy","90","11","/Users/annielenoir/Desktop/AL-subject-2.csv","legacy","8 6 3 4 7","Lentiform Loewenfeld","3.3.3","0","n","0","right","right","right","right","NA","1532","108082","17303","1532","NA","2","legacy","5","1024","2","48000","-16","experiment","2","even","1","868870","865072","866246","1604","223406","866384","828604","1772","206102","867522","871014","872547","109860","871014","NA","Sternberg Task","70","119609","103","yes","1024"
"68.26923076923077","68.26923076923077","1166.5384615384614","1166.5384615384614","black","experiment","legacy","legacy","legacy","0","uniform","1","undefined","1","left","103","103","103","0","0","103","103","0","0","103","103","103","0","103","0","Sun Oct 25 14:13:47 2020","The main experiment item","yes","SternbergTask-AL.osexp","/Users/annielenoir/Desktop","no","mono","no","18","no","white","no","no","768","legacy","91","11","/Users/annielenoir/Desktop/AL-subject-2.csv","legacy","3 5 4 7","Lentiform Loewenfeld","3.3.3","1","y","0","left","right","right","left","NA","1711","108082","17303","1711","NA","2","legacy","4","1024","2","48000","-16","experiment","2","even","3","876452","872692","873823","1604","223406","873960","828604","1772","206102","875105","878597","880309","109860","878597","NA","Sternberg Task","71","121320","104","yes","1024"
"68.57142857142857","68.57142857142857","1166.057142857143","1166.057142857143","black","experiment","legacy","legacy","legacy","0","uniform","1","undefined","1","left","104","104","104","0","0","104","104","0","0","104","104","104","0","104","0","Sun Oct 25 14:13:47 2020","The main experiment item","yes","SternbergTask-AL.osexp","/Users/annielenoir/Desktop","no","mono","no","18","no","white","no","no","768","legacy","92","11","/Users/annielenoir/Desktop/AL-subject-2.csv","legacy","9 8 4","Lentiform Loewenfeld","3.3.3","1","y","0","left","right","right","left","NA","1116","108082","17303","1116","NA","2","legacy","3","1024","2","48000","-16","experiment","2","even","9","884226","880453","881588","1604","223406","881726","828604","1772","206102","882877","886371","887488","109860","886370","NA","Sternberg Task","72","122436","105","yes","1024"
"67.9245283018868","67.9245283018868","1166.811320754717","1166.811320754717","black","experiment","legacy","legacy","legacy","0","uniform","0","undefined","0","right","105","105","105","0","0","105","105","0","0","105","105","105","0","105","0","Sun Oct 25 14:13:47 2020","The main experiment item","yes","SternbergTask-AL.osexp","/Users/annielenoir/Desktop","no","mono","no","18","no","white","no","no","768","legacy","93","11","/Users/annielenoir/Desktop/AL-subject-2.csv","legacy","6 9 7 3 8 2","Lentiform Loewenfeld","3.3.3","0","n","0","left","right","right","left","NA","1246","108082","17303","1246","NA","2","legacy","6","1024","2","48000","-16","experiment","2","even","5","891396","887634","888763","1604","223406","888901","828604","1772","206102","890046","893541","894788","109860","893541","NA","Sternberg Task","72","123682","106","yes","1024"
"68.22429906542057","68.22429906542057","1171.5233644859813","1171.5233644859813","black","experiment","legacy","legacy","legacy","0","uniform","1","undefined","1","left","106","106","106","0","0","106","106","0","0","106","106","106","0","106","0","Sun Oct 25 14:13:47 2020","The main experiment item","yes","SternbergTask-AL.osexp","/Users/annielenoir/Desktop","no","mono","no","18","no","white","no","no","768","legacy","94","11","/Users/annielenoir/Desktop/AL-subject-2.csv","legacy","9 3 1 2 5","Lentiform Loewenfeld","3.3.3","4","y","0","left","right","right","left","NA","1671","108082","17303","1671","NA","2","legacy","5","1024","2","48000","-16","experiment","2","even","2","898708","887634","896075","1604","223406","896213","894936","1772","206102","897359","900852","902524","109860","900852","NA","Sternberg Task","73","125353","107","yes","1024"
"68.51851851851852","68.51851851851852","1169.3055555555557","1169.3055555555557","black","experiment","legacy","legacy","legacy","0","uniform","1","undefined","1","right","107","107","107","0","0","107","107","0","0","107","107","107","0","107","0","Sun Oct 25 14:13:47 2020","The main experiment item","yes","SternbergTask-AL.osexp","/Users/annielenoir/Desktop","no","mono","no","18","no","white","no","no","768","legacy","95","11","/Users/annielenoir/Desktop/AL-subject-2.csv","legacy","5 3 8 7 2 4","Lentiform Loewenfeld","3.3.3","0","n","0","right","right","right","right","NA","932","108082","17303","932","NA","2","legacy","6","1024","2","48000","-16","experiment","2","even","9","906432","902666","903794","1604","223406","903934","894936","1772","206102","905081","908578","909511","109860","908578","NA","Sternberg Task","74","126285","108","yes","1024"
"67.88990825688073","67.88990825688073","1170.091743119266","1170.091743119266","black","experiment","legacy","legacy","legacy","0","uniform","0","undefined","0","right","108","108","108","0","0","108","108","0","0","108","108","108","0","108","0","Sun Oct 25 14:13:47 2020","The main experiment item","yes","SternbergTask-AL.osexp","/Users/annielenoir/Desktop","no","mono","no","18","no","white","no","no","768","legacy","96","11","/Users/annielenoir/Desktop/AL-subject-2.csv","legacy","3 9 1","Lentiform Loewenfeld","3.3.3","0","n","0","left","right","right","left","NA","1255","108082","17303","1255","NA","2","legacy","3","1024","2","48000","-16","experiment","2","even","7","913445","909662","910822","1604","223406","910959","894936","1772","206102","912098","915591","916847","109860","915591","NA","Sternberg Task","74","127540","109","yes","1024"
"68.18181818181819","68.18181818181819","1171.8818181818183","1171.8818181818183","black","experiment","legacy","legacy","legacy","0","uniform","1","undefined","1","right","109","109","109","0","0","109","109","0","0","109","109","109","0","109","0","Sun Oct 25 14:13:47 2020","The main experiment item","yes","SternbergTask-AL.osexp","/Users/annielenoir/Desktop","no","mono","no","18","no","white","no","no","768","legacy","97","11","/Users/annielenoir/Desktop/AL-subject-2.csv","legacy","8 4 3 9","Lentiform Loewenfeld","3.3.3","0","n","0","right","right","right","right","NA","1367","108082","17303","1367","NA","2","legacy","4","1024","2","48000","-16","experiment","2","even","5","920786","909662","918159","1604","223406","918297","916996","1772","206102","919439","922933","924301","109860","922933","NA","Sternberg Task","75","128907","110","yes","1024"
"68.46846846846847","68.46846846846847","1171.5765765765766","1171.5765765765766","black","experiment","legacy","legacy","legacy","0","uniform","1","undefined","1","left","110","110","110","0","0","110","110","0","0","110","110","110","0","110","0","Sun Oct 25 14:13:47 2020","The main experiment item","yes","SternbergTask-AL.osexp","/Users/annielenoir/Desktop","no","mono","no","18","no","white","no","no","768","legacy","98","11","/Users/annielenoir/Desktop/AL-subject-2.csv","legacy","4 1 5","Lentiform Loewenfeld","3.3.3","2","y","0","left","right","right","left","NA","1138","108082","17303","1138","NA","2","legacy","3","1024","2","48000","-16","experiment","2","even","1","928235","924454","925603","1604","223406","925742","916996","1772","206102","926886","930381","931520","109860","930381","NA","Sternberg Task","76","130045","111","yes","1024"
"68.75","68.75","1172.669642857143","1172.669642857143","black","experiment","legacy","legacy","legacy","0","uniform","1","undefined","1","left","111","111","111","0","0","111","111","0","0","111","111","111","0","111","0","Sun Oct 25 14:13:47 2020","The main experiment item","yes","SternbergTask-AL.osexp","/Users/annielenoir/Desktop","no","mono","no","18","no","white","no","no","768","legacy","99","11","/Users/annielenoir/Desktop/AL-subject-2.csv","legacy","7 8 4 6 9 5","Lentiform Loewenfeld","3.3.3","4","y","0","left","right","right","left","NA","1294","108082","17303","1294","NA","2","legacy","6","1024","2","48000","-16","experiment","2","even","6","935453","931666","932833","1604","223406","932969","916996","1772","206102","934103","937599","938894","109860","937599","NA","Sternberg Task","77","131339","112","yes","1024"
"69.02654867256638","69.02654867256638","1172.2566371681417","1172.2566371681417","black","experiment","legacy","legacy","legacy","0","uniform","1","undefined","1","left","112","112","112","0","0","112","112","0","0","112","112","112","0","112","0","Sun Oct 25 14:13:47 2020","The main experiment item","yes","SternbergTask-AL.osexp","/Users/annielenoir/Desktop","no","mono","no","18","no","white","no","no","768","legacy","100","11","/Users/annielenoir/Desktop/AL-subject-2.csv","legacy","3 4","Lentiform Loewenfeld","3.3.3","1","y","0","left","right","right","left","NA","1126","108082","17303","1126","NA","2","legacy","2","1024","2","48000","-16","experiment","2","even","3","942819","939042","940191","1604","223406","940328","916996","1772","206102","941471","944965","946092","109860","944965","NA","Sternberg Task","78","132465","113","yes","1024"
"69.29824561403508","69.29824561403508","1170.5087719298247","1170.5087719298247","black","experiment","legacy","legacy","legacy","0","uniform","1","undefined","1","left","113","113","113","0","0","113","113","0","0","113","113","113","0","113","0","Sun Oct 25 14:13:47 2020","The main experiment item","yes","SternbergTask-AL.osexp","/Users/annielenoir/Desktop","no","mono","no","18","no","white","no","no","768","legacy","101","11","/Users/annielenoir/Desktop/AL-subject-2.csv","legacy","4 6 5 8","Lentiform Loewenfeld","3.3.3","1","y","0","left","right","right","left","NA","973","108082","17303","973","NA","2","legacy","4","1024","2","48000","-16","experiment","2","even","4","950022","946242","947402","1604","223406","947539","916996","1772","206102","948675","952170","953144","109860","952170","NA","Sternberg Task","79","133438","114","yes","1024"
"69.56521739130434","69.56521739130434","1171.0434782608695","1171.0434782608695","black","experiment","legacy","legacy","legacy","0","uniform","1","undefined","1","right","114","114","114","0","0","114","114","0","0","114","114","114","0","114","0","Sun Oct 25 14:13:47 2020","The main experiment item","yes","SternbergTask-AL.osexp","/Users/annielenoir/Desktop","no","mono","no","18","no","white","no","no","768","legacy","102","11","/Users/annielenoir/Desktop/AL-subject-2.csv","legacy","5 9 2 3","Lentiform Loewenfeld","3.3.3","0","n","0","right","right","right","right","NA","1232","108082","17303","1232","NA","2","legacy","4","1024","2","48000","-16","experiment","2","even","8","957082","953300","954458","1604","223406","954597","916996","1772","206102","955735","959229","960462","109860","959229","NA","Sternberg Task","80","134670","115","yes","1024"
"69.82758620689656","69.82758620689656","1176.8103448275863","1176.8103448275863","black","experiment","legacy","legacy","legacy","0","uniform","1","undefined","1","right","115","115","115","0","0","115","115","0","0","115","115","115","0","115","0","Sun Oct 25 14:13:47 2020","The main experiment item","yes","SternbergTask-AL.osexp","/Users/annielenoir/Desktop","no","mono","no","18","no","white","no","no","768","legacy","103","11","/Users/annielenoir/Desktop/AL-subject-2.csv","legacy","1 8 7","Lentiform Loewenfeld","3.3.3","0","n","0","right","right","right","right","NA","1840","108082","17303","1840","NA","2","legacy","3","1024","2","48000","-16","experiment","2","even","4","964404","960609","961783","1604","223406","961919","916996","1772","206102","963055","966551","968392","109860","966551","NA","Sternberg Task","81","136510","116","yes","1024"
"70.08547008547009","70.08547008547009","1172.2222222222222","1172.2222222222222","black","experiment","legacy","legacy","legacy","0","uniform","1","undefined","1","right","116","116","116","0","0","116","116","0","0","116","116","116","0","116","0","Sun Oct 25 14:13:47 2020","The main experiment item","yes","SternbergTask-AL.osexp","/Users/annielenoir/Desktop","no","mono","no","18","no","white","no","no","768","legacy","104","11","/Users/annielenoir/Desktop/AL-subject-2.csv","legacy","5 2","Lentiform Loewenfeld","3.3.3","0","n","0","right","right","right","right","NA","640","108082","17303","640","NA","2","legacy","2","1024","2","48000","-16","experiment","2","even","7","972299","968534","969667","1604","223406","969805","916996","1772","206102","970951","974444","975085","109860","974444","NA","Sternberg Task","82","137150","117","yes","1024"
