acc,accuracy,average_response_time,avg_rt,background,block,canvas_backend,clock_backend,color_backend,compensation,coordinates,correct,correct_instructions1,correct_keyboard_response,correct_response,count_ISI,count_PracticeLoop,count_correctFeedback,count_expSequence,count_experiment,count_experimentLoop,count_fixation,count_incorrectFeedback,count_instructions1,count_instructions2,count_keyboard_response,count_memorySet,count_new_logger,count_new_loop,count_probe,count_thankYou,datetime,description,disable_garbage_collection,empty_column,experiment_file,experiment_path,font_bold,font_family,font_italic,font_size,font_underline,foreground,form_clicks,fullscreen,height,keyboard_backend,live_row,live_row_PracticeLoop,logfile,mouse_backend,numberSet,opensesame_codename,opensesame_version,posInSet,present,repeat_cycle,response,response_instructions1,response_instructions2,response_keyboard_response,response_thankYou,response_time,response_time_instructions1,response_time_instructions2,response_time_keyboard_response,response_time_thankYou,round_decimals,sampler_backend,setSize,sound_buf_size,sound_channels,sound_freq,sound_sample_size,start,subject_nr,subject_parity,target,time_ISI,time_PracticeLoop,time_correctFeedback,time_expSequence,time_experiment,time_experimentLoop,time_fixation,time_incorrectFeedback,time_instructions1,time_instructions2,time_keyboard_response,time_memorySet,time_new_logger,time_new_loop,time_probe,time_thankYou,title,total_correct,total_response_time,total_responses,uniform_coordinates,width
100,100,967,967,black,practice,legacy,legacy,legacy,0,uniform,1,undefined,1,left,0,0,0,0,0,0,0,0,0,0,0,0,0,NA,0,0,Fri Oct 23 19:50:01 2020,The main experiment item,yes,NA,SternbergTask.osexp,/Users/kaylaredder/Desktop/Tarleton /AdvancedQuant/Lab3,no,mono,no,18,no,white,no,yes,768,legacy,0,0,/Users/kaylaredder/Desktop/Tarleton /AdvancedQuant/Lab3/LR-subject-3.csv,legacy,1 7 9 8 5,Lentiform Loewenfeld,3.3.5,4,y,0,left,left,NA,left,NA,967,26567,NA,967,NA,2,legacy,5,1024,2,48000,-16,experiment,3,odd,8,31033,28639,NA,28791,2002,NA,28804,NA,2055,NA,33047,29817,34015,NA,33046,NA,Sternberg Task ,1,967,1,yes,1024
100,100,757,757,black,practice,legacy,legacy,legacy,0,uniform,1,undefined,1,right,1,0,1,1,0,0,1,1,0,0,1,1,1,NA,1,0,Fri Oct 23 19:50:01 2020,The main experiment item,yes,NA,SternbergTask.osexp,/Users/kaylaredder/Desktop/Tarleton /AdvancedQuant/Lab3,no,mono,no,18,no,white,no,yes,768,legacy,1,1,/Users/kaylaredder/Desktop/Tarleton /AdvancedQuant/Lab3/LR-subject-3.csv,legacy,5 7 8 4 1 2,Lentiform Loewenfeld,3.3.5,0,n,0,right,left,NA,right,NA,547,26567,NA,547,NA,2,legacy,6,1024,2,48000,-16,experiment,3,odd,6,37375,28639,34064,35131,2002,NA,35144,NA,2055,NA,39388,36159,39936,NA,39388,NA,Sternberg Task ,2,1514,2,yes,1024
100,100,732,732,black,practice,legacy,legacy,legacy,0,uniform,1,undefined,1,left,2,0,2,2,0,0,2,2,0,0,2,2,2,NA,2,0,Fri Oct 23 19:50:01 2020,The main experiment item,yes,NA,SternbergTask.osexp,/Users/kaylaredder/Desktop/Tarleton /AdvancedQuant/Lab3,no,mono,no,18,no,white,no,yes,768,legacy,2,2,/Users/kaylaredder/Desktop/Tarleton /AdvancedQuant/Lab3/LR-subject-3.csv,legacy,4 8,Lentiform Loewenfeld,3.3.5,1,y,0,left,left,NA,left,NA,682,26567,NA,682,NA,2,legacy,2,1024,2,48000,-16,experiment,3,odd,4,43253,28639,39956,41010,2002,NA,41022,NA,2055,NA,45266,42037,45949,NA,45266,NA,Sternberg Task ,3,2196,3,yes,1024
100,100,726,726,black,practice,legacy,legacy,legacy,0,uniform,1,undefined,1,left,3,0,3,3,0,0,3,3,0,0,3,3,3,NA,3,0,Fri Oct 23 19:50:01 2020,The main experiment item,yes,NA,SternbergTask.osexp,/Users/kaylaredder/Desktop/Tarleton /AdvancedQuant/Lab3,no,mono,no,18,no,white,no,yes,768,legacy,3,3,/Users/kaylaredder/Desktop/Tarleton /AdvancedQuant/Lab3/LR-subject-3.csv,legacy,4 3 1 7 9 8,Lentiform Loewenfeld,3.3.5,1,y,0,left,left,NA,left,NA,708,26567,NA,708,NA,2,legacy,6,1024,2,48000,-16,experiment,3,odd,4,49267,28639,45969,47023,2002,NA,47036,NA,2055,NA,51280,48051,51988,NA,51280,NA,Sternberg Task ,4,2904,4,yes,1024
100,100,743,743,black,practice,legacy,legacy,legacy,0,uniform,1,undefined,1,right,4,0,4,4,0,0,4,4,0,0,4,4,4,NA,4,0,Fri Oct 23 19:50:01 2020,The main experiment item,yes,NA,SternbergTask.osexp,/Users/kaylaredder/Desktop/Tarleton /AdvancedQuant/Lab3,no,mono,no,18,no,white,no,yes,768,legacy,4,4,/Users/kaylaredder/Desktop/Tarleton /AdvancedQuant/Lab3/LR-subject-3.csv,legacy,5,Lentiform Loewenfeld,3.3.5,0,n,0,right,left,NA,right,NA,811,26567,NA,811,NA,2,legacy,1,1024,2,48000,-16,experiment,3,odd,3,55305,28639,52008,53063,2002,NA,53075,NA,2055,NA,57319,54089,58130,NA,57318,NA,Sternberg Task ,5,3715,5,yes,1024
100,100,709.5,709.5,black,practice,legacy,legacy,legacy,0,uniform,1,undefined,1,right,5,0,5,5,0,0,5,5,0,0,5,5,5,NA,5,0,Fri Oct 23 19:50:01 2020,The main experiment item,yes,NA,SternbergTask.osexp,/Users/kaylaredder/Desktop/Tarleton /AdvancedQuant/Lab3,no,mono,no,18,no,white,no,yes,768,legacy,5,5,/Users/kaylaredder/Desktop/Tarleton /AdvancedQuant/Lab3/LR-subject-3.csv,legacy,9 6 7 4 5,Lentiform Loewenfeld,3.3.5,0,n,0,right,left,NA,right,NA,542,26567,NA,542,NA,2,legacy,5,1024,2,48000,-16,experiment,3,odd,3,61450,28639,58152,59207,2002,NA,59220,NA,2055,NA,63462,60234,64005,NA,63462,NA,Sternberg Task ,6,4257,6,yes,1024
100,100,686.2857143,686.2857143,black,practice,legacy,legacy,legacy,0,uniform,1,undefined,1,left,6,0,6,6,0,0,6,6,0,0,6,6,6,NA,6,0,Fri Oct 23 19:50:01 2020,The main experiment item,yes,NA,SternbergTask.osexp,/Users/kaylaredder/Desktop/Tarleton /AdvancedQuant/Lab3,no,mono,no,18,no,white,no,yes,768,legacy,6,6,/Users/kaylaredder/Desktop/Tarleton /AdvancedQuant/Lab3/LR-subject-3.csv,legacy,6,Lentiform Loewenfeld,3.3.5,1,y,0,left,left,NA,left,NA,547,26567,NA,547,NA,2,legacy,1,1024,2,48000,-16,experiment,3,odd,6,67325,28639,64027,65082,2002,NA,65094,NA,2055,NA,69340,66109,69888,NA,69340,NA,Sternberg Task ,7,4804,7,yes,1024
100,100,670.625,670.625,black,practice,legacy,legacy,legacy,0,uniform,1,undefined,1,left,7,0,7,7,0,0,7,7,0,0,7,7,7,NA,7,0,Fri Oct 23 19:50:01 2020,The main experiment item,yes,NA,SternbergTask.osexp,/Users/kaylaredder/Desktop/Tarleton /AdvancedQuant/Lab3,no,mono,no,18,no,white,no,yes,768,legacy,7,7,/Users/kaylaredder/Desktop/Tarleton /AdvancedQuant/Lab3/LR-subject-3.csv,legacy,2 9 4,Lentiform Loewenfeld,3.3.5,3,y,0,left,left,NA,left,NA,561,26567,NA,561,NA,2,legacy,3,1024,2,48000,-16,experiment,3,odd,4,73208,28639,69909,70964,2002,NA,70977,NA,2055,NA,75222,71992,75784,NA,75222,NA,Sternberg Task ,8,5365,8,yes,1024
100,100,661.8888889,661.8888889,black,practice,legacy,legacy,legacy,0,uniform,1,undefined,1,right,8,0,8,8,0,0,8,8,0,0,8,8,8,NA,8,0,Fri Oct 23 19:50:01 2020,The main experiment item,yes,NA,SternbergTask.osexp,/Users/kaylaredder/Desktop/Tarleton /AdvancedQuant/Lab3,no,mono,no,18,no,white,no,yes,768,legacy,8,8,/Users/kaylaredder/Desktop/Tarleton /AdvancedQuant/Lab3/LR-subject-3.csv,legacy,4 1 5,Lentiform Loewenfeld,3.3.5,0,n,0,right,left,NA,right,NA,592,26567,NA,592,NA,2,legacy,3,1024,2,48000,-16,experiment,3,odd,2,79104,28639,75805,76860,2002,NA,76873,NA,2055,NA,81118,77888,81711,NA,81118,NA,Sternberg Task ,9,5957,9,yes,1024
100,100,659.1,659.1,black,practice,legacy,legacy,legacy,0,uniform,1,undefined,1,right,9,0,9,9,0,0,9,9,0,0,9,9,9,NA,9,0,Fri Oct 23 19:50:01 2020,The main experiment item,yes,NA,SternbergTask.osexp,/Users/kaylaredder/Desktop/Tarleton /AdvancedQuant/Lab3,no,mono,no,18,no,white,no,yes,768,legacy,9,9,/Users/kaylaredder/Desktop/Tarleton /AdvancedQuant/Lab3/LR-subject-3.csv,legacy,3 1 9 4,Lentiform Loewenfeld,3.3.5,0,n,0,right,left,NA,right,NA,634,26567,NA,634,NA,2,legacy,4,1024,2,48000,-16,experiment,3,odd,6,85033,28639,81732,82788,2002,NA,82801,NA,2055,NA,87047,83816,87681,NA,87047,NA,Sternberg Task ,10,6591,10,yes,1024
90.90909091,90.90909091,679.7272727,679.7272727,black,practice,legacy,legacy,legacy,0,uniform,0,undefined,0,left,10,0,10,10,0,0,10,10,0,0,10,10,10,NA,10,0,Fri Oct 23 19:50:01 2020,The main experiment item,yes,NA,SternbergTask.osexp,/Users/kaylaredder/Desktop/Tarleton /AdvancedQuant/Lab3,no,mono,no,18,no,white,no,yes,768,legacy,10,10,/Users/kaylaredder/Desktop/Tarleton /AdvancedQuant/Lab3/LR-subject-3.csv,legacy,1 5 2 9,Lentiform Loewenfeld,3.3.5,2,y,0,right,left,NA,right,NA,886,26567,NA,886,NA,2,legacy,4,1024,2,48000,-16,experiment,3,odd,5,91002,28639,87704,88759,2002,NA,88772,NA,2055,NA,93017,89787,93903,NA,93017,NA,Sternberg Task ,10,7477,11,yes,1024
91.66666667,91.66666667,677.1666667,677.1666667,black,practice,legacy,legacy,legacy,0,uniform,1,undefined,1,right,11,0,11,11,0,0,11,11,0,0,11,11,11,NA,11,0,Fri Oct 23 19:50:01 2020,The main experiment item,yes,NA,SternbergTask.osexp,/Users/kaylaredder/Desktop/Tarleton /AdvancedQuant/Lab3,no,mono,no,18,no,white,no,yes,768,legacy,11,11,/Users/kaylaredder/Desktop/Tarleton /AdvancedQuant/Lab3/LR-subject-3.csv,legacy,2 1,Lentiform Loewenfeld,3.3.5,0,n,0,right,left,NA,right,NA,649,26567,NA,649,NA,2,legacy,2,1024,2,48000,-16,experiment,3,odd,5,97222,28639,87704,94979,2002,NA,94992,93924,2055,NA,99236,96006,99885,NA,99236,NA,Sternberg Task ,11,8126,12,yes,1024
92.30769231,92.30769231,668.6153846,668.6153846,black,experiment,legacy,legacy,legacy,0,uniform,1,undefined,1,left,12,0,12,12,0,0,12,12,0,0,12,12,12,NA,12,0,Fri Oct 23 19:50:01 2020,The main experiment item,yes,NA,SternbergTask.osexp,/Users/kaylaredder/Desktop/Tarleton /AdvancedQuant/Lab3,no,mono,no,18,no,white,no,yes,768,legacy,0,11,/Users/kaylaredder/Desktop/Tarleton /AdvancedQuant/Lab3/LR-subject-3.csv,legacy,1 4 9 3 2 5,Lentiform Loewenfeld,3.3.5,3,y,0,left,left,left,left,NA,566,26567,35675,566,NA,2,legacy,6,1024,2,48000,-16,experiment,3,odd,9,138914,28639,99907,136669,2002,136620,136682,93924,2055,100945,140928,137697,141495,NA,140927,NA,Sternberg Task ,12,8692,13,yes,1024
92.85714286,92.85714286,670.2857143,670.2857143,black,experiment,legacy,legacy,legacy,0,uniform,1,undefined,1,left,13,0,13,13,0,0,13,13,0,0,13,13,13,NA,13,0,Fri Oct 23 19:50:01 2020,The main experiment item,yes,NA,SternbergTask.osexp,/Users/kaylaredder/Desktop/Tarleton /AdvancedQuant/Lab3,no,mono,no,18,no,white,no,yes,768,legacy,1,11,/Users/kaylaredder/Desktop/Tarleton /AdvancedQuant/Lab3/LR-subject-3.csv,legacy,4 6 2 5 1,Lentiform Loewenfeld,3.3.5,5,y,0,left,left,left,left,NA,692,26567,35675,692,NA,2,legacy,5,1024,2,48000,-16,experiment,3,odd,1,144817,28639,141516,142573,2002,136620,142586,93924,2055,100945,146831,143601,147523,NA,146831,NA,Sternberg Task ,13,9384,14,yes,1024
93.33333333,93.33333333,654.6,654.6,black,experiment,legacy,legacy,legacy,0,uniform,1,undefined,1,left,14,0,14,14,0,0,14,14,0,0,14,14,14,NA,14,0,Fri Oct 23 19:50:01 2020,The main experiment item,yes,NA,SternbergTask.osexp,/Users/kaylaredder/Desktop/Tarleton /AdvancedQuant/Lab3,no,mono,no,18,no,white,no,yes,768,legacy,2,11,/Users/kaylaredder/Desktop/Tarleton /AdvancedQuant/Lab3/LR-subject-3.csv,legacy,8 9 5 6 7,Lentiform Loewenfeld,3.3.5,1,y,0,left,left,left,left,NA,435,26567,35675,435,NA,2,legacy,5,1024,2,48000,-16,experiment,3,odd,8,150845,28639,147546,148601,2002,136620,148614,93924,2055,100945,152859,149629,153294,NA,152859,NA,Sternberg Task ,14,9819,15,yes,1024
93.75,93.75,663,663,black,experiment,legacy,legacy,legacy,0,uniform,1,undefined,1,right,15,0,15,15,0,0,15,15,0,0,15,15,15,NA,15,0,Fri Oct 23 19:50:01 2020,The main experiment item,yes,NA,SternbergTask.osexp,/Users/kaylaredder/Desktop/Tarleton /AdvancedQuant/Lab3,no,mono,no,18,no,white,no,yes,768,legacy,3,11,/Users/kaylaredder/Desktop/Tarleton /AdvancedQuant/Lab3/LR-subject-3.csv,legacy,5 3 2 6 9 8,Lentiform Loewenfeld,3.3.5,0,n,0,right,left,left,right,NA,789,26567,35675,789,NA,2,legacy,6,1024,2,48000,-16,experiment,3,odd,4,156616,28639,153315,154372,2002,136620,154385,93924,2055,100945,158630,155400,159419,NA,158630,NA,Sternberg Task ,15,10608,16,yes,1024
94.11764706,94.11764706,657,657,black,experiment,legacy,legacy,legacy,0,uniform,1,undefined,1,right,16,0,16,16,0,0,16,16,0,0,16,16,16,NA,16,0,Fri Oct 23 19:50:01 2020,The main experiment item,yes,NA,SternbergTask.osexp,/Users/kaylaredder/Desktop/Tarleton /AdvancedQuant/Lab3,no,mono,no,18,no,white,no,yes,768,legacy,4,11,/Users/kaylaredder/Desktop/Tarleton /AdvancedQuant/Lab3/LR-subject-3.csv,legacy,1 4 9 3,Lentiform Loewenfeld,3.3.5,0,n,0,right,left,left,right,NA,561,26567,35675,561,NA,2,legacy,4,1024,2,48000,-16,experiment,3,odd,5,162740,28639,159440,160496,2002,136620,160509,93924,2055,100945,164754,161524,165315,NA,164754,NA,Sternberg Task ,16,11169,17,yes,1024
94.44444444,94.44444444,645.6111111,645.6111111,black,experiment,legacy,legacy,legacy,0,uniform,1,undefined,1,right,17,0,17,17,0,0,17,17,0,0,17,17,17,NA,17,0,Fri Oct 23 19:50:01 2020,The main experiment item,yes,NA,SternbergTask.osexp,/Users/kaylaredder/Desktop/Tarleton /AdvancedQuant/Lab3,no,mono,no,18,no,white,no,yes,768,legacy,5,11,/Users/kaylaredder/Desktop/Tarleton /AdvancedQuant/Lab3/LR-subject-3.csv,legacy,4 1,Lentiform Loewenfeld,3.3.5,0,n,0,right,left,left,right,NA,452,26567,35675,452,NA,2,legacy,2,1024,2,48000,-16,experiment,3,odd,6,168637,28639,165336,166392,2002,136620,166405,93924,2055,100945,170651,167421,171104,NA,170651,NA,Sternberg Task ,17,11621,18,yes,1024
94.73684211,94.73684211,638.0526316,638.0526316,black,experiment,legacy,legacy,legacy,0,uniform,1,undefined,1,right,18,0,18,18,0,0,18,18,0,0,18,18,18,NA,18,0,Fri Oct 23 19:50:01 2020,The main experiment item,yes,NA,SternbergTask.osexp,/Users/kaylaredder/Desktop/Tarleton /AdvancedQuant/Lab3,no,mono,no,18,no,white,no,yes,768,legacy,6,11,/Users/kaylaredder/Desktop/Tarleton /AdvancedQuant/Lab3/LR-subject-3.csv,legacy,5,Lentiform Loewenfeld,3.3.5,0,n,0,right,left,left,right,NA,502,26567,35675,502,NA,2,legacy,1,1024,2,48000,-16,experiment,3,odd,8,174426,28639,171127,172182,2002,136620,172195,93924,2055,100945,176440,173210,176943,NA,176440,NA,Sternberg Task ,18,12123,19,yes,1024
95,95,649.25,649.25,black,experiment,legacy,legacy,legacy,0,uniform,1,undefined,1,right,19,0,19,19,0,0,19,19,0,0,19,19,19,NA,19,0,Fri Oct 23 19:50:01 2020,The main experiment item,yes,NA,SternbergTask.osexp,/Users/kaylaredder/Desktop/Tarleton /AdvancedQuant/Lab3,no,mono,no,18,no,white,no,yes,768,legacy,7,11,/Users/kaylaredder/Desktop/Tarleton /AdvancedQuant/Lab3/LR-subject-3.csv,legacy,4 2 6 9,Lentiform Loewenfeld,3.3.5,0,n,0,right,left,left,right,NA,862,26567,35675,862,NA,2,legacy,4,1024,2,48000,-16,experiment,3,odd,7,180263,28639,176964,178018,2002,136620,178031,93924,2055,100945,182277,179046,183140,NA,182277,NA,Sternberg Task ,19,12985,20,yes,1024
95.23809524,95.23809524,651.3809524,651.3809524,black,experiment,legacy,legacy,legacy,0,uniform,1,undefined,1,right,20,0,20,20,0,0,20,20,0,0,20,20,20,NA,20,0,Fri Oct 23 19:50:01 2020,The main experiment item,yes,NA,SternbergTask.osexp,/Users/kaylaredder/Desktop/Tarleton /AdvancedQuant/Lab3,no,mono,no,18,no,white,no,yes,768,legacy,8,11,/Users/kaylaredder/Desktop/Tarleton /AdvancedQuant/Lab3/LR-subject-3.csv,legacy,8 4 3 5,Lentiform Loewenfeld,3.3.5,0,n,0,right,left,left,right,NA,694,26567,35675,694,NA,2,legacy,4,1024,2,48000,-16,experiment,3,odd,6,186460,28639,183161,184216,2002,136620,184229,93924,2055,100945,188474,185243,189169,NA,188474,NA,Sternberg Task ,20,13679,21,yes,1024
95.45454545,95.45454545,648.8181818,648.8181818,black,experiment,legacy,legacy,legacy,0,uniform,1,undefined,1,right,21,0,21,21,0,0,21,21,0,0,21,21,21,NA,21,0,Fri Oct 23 19:50:01 2020,The main experiment item,yes,NA,SternbergTask.osexp,/Users/kaylaredder/Desktop/Tarleton /AdvancedQuant/Lab3,no,mono,no,18,no,white,no,yes,768,legacy,9,11,/Users/kaylaredder/Desktop/Tarleton /AdvancedQuant/Lab3/LR-subject-3.csv,legacy,7 1 5 6 3,Lentiform Loewenfeld,3.3.5,0,n,0,right,left,left,right,NA,595,26567,35675,595,NA,2,legacy,5,1024,2,48000,-16,experiment,3,odd,8,192492,28639,189191,190247,2002,136620,190260,93924,2055,100945,194506,191275,195102,NA,194506,NA,Sternberg Task ,21,14274,22,yes,1024
95.65217391,95.65217391,643.0869565,643.0869565,black,experiment,legacy,legacy,legacy,0,uniform,1,undefined,1,left,22,0,22,22,0,0,22,22,0,0,22,22,22,NA,22,0,Fri Oct 23 19:50:01 2020,The main experiment item,yes,NA,SternbergTask.osexp,/Users/kaylaredder/Desktop/Tarleton /AdvancedQuant/Lab3,no,mono,no,18,no,white,no,yes,768,legacy,10,11,/Users/kaylaredder/Desktop/Tarleton /AdvancedQuant/Lab3/LR-subject-3.csv,legacy,9 6 2 4 1,Lentiform Loewenfeld,3.3.5,4,y,0,left,left,left,left,NA,517,26567,35675,517,NA,2,legacy,5,1024,2,48000,-16,experiment,3,odd,4,198424,28639,195123,196179,2002,136620,196192,93924,2055,100945,200438,197207,200956,NA,200438,NA,Sternberg Task ,22,14791,23,yes,1024
95.83333333,95.83333333,643.3333333,643.3333333,black,experiment,legacy,legacy,legacy,0,uniform,1,undefined,1,right,23,0,23,23,0,0,23,23,0,0,23,23,23,NA,23,0,Fri Oct 23 19:50:01 2020,The main experiment item,yes,NA,SternbergTask.osexp,/Users/kaylaredder/Desktop/Tarleton /AdvancedQuant/Lab3,no,mono,no,18,no,white,no,yes,768,legacy,11,11,/Users/kaylaredder/Desktop/Tarleton /AdvancedQuant/Lab3/LR-subject-3.csv,legacy,7 6 4 8 1 2,Lentiform Loewenfeld,3.3.5,0,n,0,right,left,left,right,NA,649,26567,35675,649,NA,2,legacy,6,1024,2,48000,-16,experiment,3,odd,9,204275,28639,200977,202031,2002,136620,202044,93924,2055,100945,206289,203059,206938,NA,206288,NA,Sternberg Task ,23,15440,24,yes,1024
96,96,640,640,black,experiment,legacy,legacy,legacy,0,uniform,1,undefined,1,right,24,0,24,24,0,0,24,24,0,0,24,24,24,NA,24,0,Fri Oct 23 19:50:01 2020,The main experiment item,yes,NA,SternbergTask.osexp,/Users/kaylaredder/Desktop/Tarleton /AdvancedQuant/Lab3,no,mono,no,18,no,white,no,yes,768,legacy,12,11,/Users/kaylaredder/Desktop/Tarleton /AdvancedQuant/Lab3/LR-subject-3.csv,legacy,5 9 2 3,Lentiform Loewenfeld,3.3.5,0,n,0,right,left,left,right,NA,560,26567,35675,560,NA,2,legacy,4,1024,2,48000,-16,experiment,3,odd,8,210260,28639,206961,208016,2002,136620,208029,93924,2055,100945,212274,209044,212834,NA,212274,NA,Sternberg Task ,24,16000,25,yes,1024
96.15384615,96.15384615,637.5384615,637.5384615,black,experiment,legacy,legacy,legacy,0,uniform,1,undefined,1,left,25,0,25,25,0,0,25,25,0,0,25,25,25,NA,25,0,Fri Oct 23 19:50:01 2020,The main experiment item,yes,NA,SternbergTask.osexp,/Users/kaylaredder/Desktop/Tarleton /AdvancedQuant/Lab3,no,mono,no,18,no,white,no,yes,768,legacy,13,11,/Users/kaylaredder/Desktop/Tarleton /AdvancedQuant/Lab3/LR-subject-3.csv,legacy,6 7 8 5,Lentiform Loewenfeld,3.3.5,3,y,0,left,left,left,left,NA,576,26567,35675,576,NA,2,legacy,4,1024,2,48000,-16,experiment,3,odd,8,216156,28639,212857,213913,2002,136620,213926,93924,2055,100945,218171,214941,218747,NA,218171,NA,Sternberg Task ,25,16576,26,yes,1024
96.2962963,96.2962963,635.5185185,635.5185185,black,experiment,legacy,legacy,legacy,0,uniform,1,undefined,1,right,26,0,26,26,0,0,26,26,0,0,26,26,26,NA,26,0,Fri Oct 23 19:50:01 2020,The main experiment item,yes,NA,SternbergTask.osexp,/Users/kaylaredder/Desktop/Tarleton /AdvancedQuant/Lab3,no,mono,no,18,no,white,no,yes,768,legacy,14,11,/Users/kaylaredder/Desktop/Tarleton /AdvancedQuant/Lab3/LR-subject-3.csv,legacy,8 5 4 2 9 6,Lentiform Loewenfeld,3.3.5,0,n,0,right,left,left,right,NA,583,26567,35675,583,NA,2,legacy,6,1024,2,48000,-16,experiment,3,odd,3,222071,28639,218770,219827,2002,136620,219840,93924,2055,100945,224085,220855,224668,NA,224085,NA,Sternberg Task ,26,17159,27,yes,1024
96.42857143,96.42857143,631.6785714,631.6785714,black,experiment,legacy,legacy,legacy,0,uniform,1,undefined,1,right,27,0,27,27,0,0,27,27,0,0,27,27,27,NA,27,0,Fri Oct 23 19:50:01 2020,The main experiment item,yes,NA,SternbergTask.osexp,/Users/kaylaredder/Desktop/Tarleton /AdvancedQuant/Lab3,no,mono,no,18,no,white,no,yes,768,legacy,15,11,/Users/kaylaredder/Desktop/Tarleton /AdvancedQuant/Lab3/LR-subject-3.csv,legacy,5 3 8 7 2 4,Lentiform Loewenfeld,3.3.5,0,n,0,right,left,left,right,NA,528,26567,35675,528,NA,2,legacy,6,1024,2,48000,-16,experiment,3,odd,9,227992,28639,224690,225747,2002,136620,225760,93924,2055,100945,230006,226775,230534,NA,230006,NA,Sternberg Task ,27,17687,28,yes,1024
96.55172414,96.55172414,631.7586207,631.7586207,black,experiment,legacy,legacy,legacy,0,uniform,1,undefined,1,right,28,0,28,28,0,0,28,28,0,0,28,28,28,NA,28,0,Fri Oct 23 19:50:01 2020,The main experiment item,yes,NA,SternbergTask.osexp,/Users/kaylaredder/Desktop/Tarleton /AdvancedQuant/Lab3,no,mono,no,18,no,white,no,yes,768,legacy,16,11,/Users/kaylaredder/Desktop/Tarleton /AdvancedQuant/Lab3/LR-subject-3.csv,legacy,8 5 7 3 6,Lentiform Loewenfeld,3.3.5,0,n,0,right,left,left,right,NA,634,26567,35675,634,NA,2,legacy,5,1024,2,48000,-16,experiment,3,odd,9,233858,28639,230557,231613,2002,136620,231626,93924,2055,100945,235872,232641,236507,NA,235872,NA,Sternberg Task ,28,18321,29,yes,1024
96.66666667,96.66666667,632.7,632.7,black,experiment,legacy,legacy,legacy,0,uniform,1,undefined,1,left,29,0,29,29,0,0,29,29,0,0,29,29,29,NA,29,0,Fri Oct 23 19:50:01 2020,The main experiment item,yes,NA,SternbergTask.osexp,/Users/kaylaredder/Desktop/Tarleton /AdvancedQuant/Lab3,no,mono,no,18,no,white,no,yes,768,legacy,17,11,/Users/kaylaredder/Desktop/Tarleton /AdvancedQuant/Lab3/LR-subject-3.csv,legacy,3 9 7 6 4,Lentiform Loewenfeld,3.3.5,3,y,0,left,left,left,left,NA,660,26567,35675,660,NA,2,legacy,5,1024,2,48000,-16,experiment,3,odd,7,239828,28639,236528,237583,2002,136620,237596,93924,2055,100945,241842,238611,242503,NA,241842,NA,Sternberg Task ,29,18981,30,yes,1024
96.77419355,96.77419355,631.9677419,631.9677419,black,experiment,legacy,legacy,legacy,0,uniform,1,undefined,1,left,30,0,30,30,0,0,30,30,0,0,30,30,30,NA,30,0,Fri Oct 23 19:50:01 2020,The main experiment item,yes,NA,SternbergTask.osexp,/Users/kaylaredder/Desktop/Tarleton /AdvancedQuant/Lab3,no,mono,no,18,no,white,no,yes,768,legacy,18,11,/Users/kaylaredder/Desktop/Tarleton /AdvancedQuant/Lab3/LR-subject-3.csv,legacy,3 4,Lentiform Loewenfeld,3.3.5,1,y,0,left,left,left,left,NA,610,26567,35675,610,NA,2,legacy,2,1024,2,48000,-16,experiment,3,odd,3,245825,28639,242525,243581,2002,136620,243594,93924,2055,100945,247838,244609,248449,NA,247838,NA,Sternberg Task ,30,19591,31,yes,1024
96.875,96.875,626,626,black,experiment,legacy,legacy,legacy,0,uniform,1,undefined,1,left,31,0,31,31,0,0,31,31,0,0,31,31,31,NA,31,0,Fri Oct 23 19:50:01 2020,The main experiment item,yes,NA,SternbergTask.osexp,/Users/kaylaredder/Desktop/Tarleton /AdvancedQuant/Lab3,no,mono,no,18,no,white,no,yes,768,legacy,19,11,/Users/kaylaredder/Desktop/Tarleton /AdvancedQuant/Lab3/LR-subject-3.csv,legacy,2 3,Lentiform Loewenfeld,3.3.5,1,y,0,left,left,left,left,NA,441,26567,35675,441,NA,2,legacy,2,1024,2,48000,-16,experiment,3,odd,2,251769,28639,248470,249525,2002,136620,249538,93924,2055,100945,253784,250553,254226,NA,253784,NA,Sternberg Task ,31,20032,32,yes,1024
96.96969697,96.96969697,620.4242424,620.4242424,black,experiment,legacy,legacy,legacy,0,uniform,1,undefined,1,left,32,0,32,32,0,0,32,32,0,0,32,32,32,NA,32,0,Fri Oct 23 19:50:01 2020,The main experiment item,yes,NA,SternbergTask.osexp,/Users/kaylaredder/Desktop/Tarleton /AdvancedQuant/Lab3,no,mono,no,18,no,white,no,yes,768,legacy,20,11,/Users/kaylaredder/Desktop/Tarleton /AdvancedQuant/Lab3/LR-subject-3.csv,legacy,3 5 4 7,Lentiform Loewenfeld,3.3.5,1,y,0,left,left,left,left,NA,442,26567,35675,442,NA,2,legacy,4,1024,2,48000,-16,experiment,3,odd,3,257546,28639,254247,255303,2002,136620,255315,93924,2055,100945,259560,256330,260003,NA,259560,NA,Sternberg Task ,32,20474,33,yes,1024
97.05882353,97.05882353,620.2647059,620.2647059,black,experiment,legacy,legacy,legacy,0,uniform,1,undefined,1,right,33,0,33,33,0,0,33,33,0,0,33,33,33,NA,33,0,Fri Oct 23 19:50:01 2020,The main experiment item,yes,NA,SternbergTask.osexp,/Users/kaylaredder/Desktop/Tarleton /AdvancedQuant/Lab3,no,mono,no,18,no,white,no,yes,768,legacy,21,11,/Users/kaylaredder/Desktop/Tarleton /AdvancedQuant/Lab3/LR-subject-3.csv,legacy,6 8,Lentiform Loewenfeld,3.3.5,0,n,0,right,left,left,right,NA,615,26567,35675,615,NA,2,legacy,2,1024,2,48000,-16,experiment,3,odd,9,263326,28639,260026,261082,2002,136620,261095,93924,2055,100945,265340,262109,265956,NA,265340,NA,Sternberg Task ,33,21089,34,yes,1024
97.14285714,97.14285714,613.4,613.4,black,experiment,legacy,legacy,legacy,0,uniform,1,undefined,1,left,34,0,34,34,0,0,34,34,0,0,34,34,34,NA,34,0,Fri Oct 23 19:50:01 2020,The main experiment item,yes,NA,SternbergTask.osexp,/Users/kaylaredder/Desktop/Tarleton /AdvancedQuant/Lab3,no,mono,no,18,no,white,no,yes,768,legacy,22,11,/Users/kaylaredder/Desktop/Tarleton /AdvancedQuant/Lab3/LR-subject-3.csv,legacy,8,Lentiform Loewenfeld,3.3.5,1,y,0,left,left,left,left,NA,380,26567,35675,380,NA,2,legacy,1,1024,2,48000,-16,experiment,3,odd,8,269275,28639,265977,267031,2002,136620,267044,93924,2055,100945,271289,268059,271670,NA,271289,NA,Sternberg Task ,34,21469,35,yes,1024
97.22222222,97.22222222,609.7777778,609.7777778,black,experiment,legacy,legacy,legacy,0,uniform,1,undefined,1,left,35,0,35,35,0,0,35,35,0,0,35,35,35,NA,35,0,Fri Oct 23 19:50:01 2020,The main experiment item,yes,NA,SternbergTask.osexp,/Users/kaylaredder/Desktop/Tarleton /AdvancedQuant/Lab3,no,mono,no,18,no,white,no,yes,768,legacy,23,11,/Users/kaylaredder/Desktop/Tarleton /AdvancedQuant/Lab3/LR-subject-3.csv,legacy,4,Lentiform Loewenfeld,3.3.5,1,y,0,left,left,left,left,NA,483,26567,35675,483,NA,2,legacy,1,1024,2,48000,-16,experiment,3,odd,4,274993,28639,271692,272748,2002,136620,272761,93924,2055,100945,277007,273776,277491,NA,277006,NA,Sternberg Task ,35,21952,36,yes,1024
97.2972973,97.2972973,610.3783784,610.3783784,black,experiment,legacy,legacy,legacy,0,uniform,1,undefined,1,left,36,0,36,36,0,0,36,36,0,0,36,36,36,NA,36,0,Fri Oct 23 19:50:01 2020,The main experiment item,yes,NA,SternbergTask.osexp,/Users/kaylaredder/Desktop/Tarleton /AdvancedQuant/Lab3,no,mono,no,18,no,white,no,yes,768,legacy,24,11,/Users/kaylaredder/Desktop/Tarleton /AdvancedQuant/Lab3/LR-subject-3.csv,legacy,9 3 8 2 1 4,Lentiform Loewenfeld,3.3.5,3,y,0,left,left,left,left,NA,632,26567,35675,632,NA,2,legacy,6,1024,2,48000,-16,experiment,3,odd,8,280812,28639,277512,278567,2002,136620,278580,93924,2055,100945,282826,279595,283458,NA,282826,NA,Sternberg Task ,36,22584,37,yes,1024
97.36842105,97.36842105,604.8421053,604.8421053,black,experiment,legacy,legacy,legacy,0,uniform,1,undefined,1,left,37,0,37,37,0,0,37,37,0,0,37,37,37,NA,37,0,Fri Oct 23 19:50:01 2020,The main experiment item,yes,NA,SternbergTask.osexp,/Users/kaylaredder/Desktop/Tarleton /AdvancedQuant/Lab3,no,mono,no,18,no,white,no,yes,768,legacy,25,11,/Users/kaylaredder/Desktop/Tarleton /AdvancedQuant/Lab3/LR-subject-3.csv,legacy,9 8 4,Lentiform Loewenfeld,3.3.5,1,y,0,left,left,left,left,NA,400,26567,35675,400,NA,2,legacy,3,1024,2,48000,-16,experiment,3,odd,9,286779,28639,283480,284535,2002,136620,284548,93924,2055,100945,288794,285563,289194,NA,288794,NA,Sternberg Task ,37,22984,38,yes,1024
97.43589744,97.43589744,609.0512821,609.0512821,black,experiment,legacy,legacy,legacy,0,uniform,1,undefined,1,left,38,0,38,38,0,0,38,38,0,0,38,38,38,NA,38,0,Fri Oct 23 19:50:01 2020,The main experiment item,yes,NA,SternbergTask.osexp,/Users/kaylaredder/Desktop/Tarleton /AdvancedQuant/Lab3,no,mono,no,18,no,white,no,yes,768,legacy,26,11,/Users/kaylaredder/Desktop/Tarleton /AdvancedQuant/Lab3/LR-subject-3.csv,legacy,9 5 8 1,Lentiform Loewenfeld,3.3.5,2,y,0,left,left,left,left,NA,769,26567,35675,769,NA,2,legacy,4,1024,2,48000,-16,experiment,3,odd,5,292515,28639,289216,290271,2002,136620,290284,93924,2055,100945,294529,291299,295298,NA,294529,NA,Sternberg Task ,38,23753,39,yes,1024
97.5,97.5,606.825,606.825,black,experiment,legacy,legacy,legacy,0,uniform,1,undefined,1,left,39,0,39,39,0,0,39,39,0,0,39,39,39,NA,39,0,Fri Oct 23 19:50:01 2020,The main experiment item,yes,NA,SternbergTask.osexp,/Users/kaylaredder/Desktop/Tarleton /AdvancedQuant/Lab3,no,mono,no,18,no,white,no,yes,768,legacy,27,11,/Users/kaylaredder/Desktop/Tarleton /AdvancedQuant/Lab3/LR-subject-3.csv,legacy,7 2 3,Lentiform Loewenfeld,3.3.5,3,y,0,left,left,left,left,NA,520,26567,35675,520,NA,2,legacy,3,1024,2,48000,-16,experiment,3,odd,3,298621,28639,295320,296376,2002,136620,296389,93924,2055,100945,300635,297405,301156,NA,300635,NA,Sternberg Task ,39,24273,40,yes,1024
97.56097561,97.56097561,607.0487805,607.0487805,black,experiment,legacy,legacy,legacy,0,uniform,1,undefined,1,left,40,0,40,40,0,0,40,40,0,0,40,40,40,NA,40,0,Fri Oct 23 19:50:01 2020,The main experiment item,yes,NA,SternbergTask.osexp,/Users/kaylaredder/Desktop/Tarleton /AdvancedQuant/Lab3,no,mono,no,18,no,white,no,yes,768,legacy,28,11,/Users/kaylaredder/Desktop/Tarleton /AdvancedQuant/Lab3/LR-subject-3.csv,legacy,3 4 9 6 2 9,Lentiform Loewenfeld,3.3.5,5,y,0,left,left,left,left,NA,616,26567,35675,616,NA,2,legacy,6,1024,2,48000,-16,experiment,3,odd,2,304482,28639,301181,302237,2002,136620,302249,93924,2055,100945,306496,303265,307113,NA,306496,NA,Sternberg Task ,40,24889,41,yes,1024
97.61904762,97.61904762,605.3333333,605.3333333,black,experiment,legacy,legacy,legacy,0,uniform,1,undefined,1,left,41,0,41,41,0,0,41,41,0,0,41,41,41,NA,41,0,Fri Oct 23 19:50:01 2020,The main experiment item,yes,NA,SternbergTask.osexp,/Users/kaylaredder/Desktop/Tarleton /AdvancedQuant/Lab3,no,mono,no,18,no,white,no,yes,768,legacy,29,11,/Users/kaylaredder/Desktop/Tarleton /AdvancedQuant/Lab3/LR-subject-3.csv,legacy,8 9 6 1,Lentiform Loewenfeld,3.3.5,2,y,0,left,left,left,left,NA,535,26567,35675,535,NA,2,legacy,4,1024,2,48000,-16,experiment,3,odd,9,310432,28639,307133,308188,2002,136620,308201,93924,2055,100945,312446,309215,312982,NA,312446,NA,Sternberg Task ,41,25424,42,yes,1024
97.6744186,97.6744186,604.1162791,604.1162791,black,experiment,legacy,legacy,legacy,0,uniform,1,undefined,1,left,42,0,42,42,0,0,42,42,0,0,42,42,42,NA,42,0,Fri Oct 23 19:50:01 2020,The main experiment item,yes,NA,SternbergTask.osexp,/Users/kaylaredder/Desktop/Tarleton /AdvancedQuant/Lab3,no,mono,no,18,no,white,no,yes,768,legacy,30,11,/Users/kaylaredder/Desktop/Tarleton /AdvancedQuant/Lab3/LR-subject-3.csv,legacy,2 6 1 7 4,Lentiform Loewenfeld,3.3.5,2,y,0,left,left,left,left,NA,553,26567,35675,553,NA,2,legacy,5,1024,2,48000,-16,experiment,3,odd,6,316302,28639,313002,314058,2002,136620,314071,93924,2055,100945,318316,315086,318870,NA,318316,NA,Sternberg Task ,42,25977,43,yes,1024
97.72727273,97.72727273,604.1363636,604.1363636,black,experiment,legacy,legacy,legacy,0,uniform,1,undefined,1,right,43,0,43,43,0,0,43,43,0,0,43,43,43,NA,43,0,Fri Oct 23 19:50:01 2020,The main experiment item,yes,NA,SternbergTask.osexp,/Users/kaylaredder/Desktop/Tarleton /AdvancedQuant/Lab3,no,mono,no,18,no,white,no,yes,768,legacy,31,11,/Users/kaylaredder/Desktop/Tarleton /AdvancedQuant/Lab3/LR-subject-3.csv,legacy,1 4 3 6 5,Lentiform Loewenfeld,3.3.5,0,n,0,right,left,left,right,NA,605,26567,35675,605,NA,2,legacy,5,1024,2,48000,-16,experiment,3,odd,8,322193,28639,318892,319949,2002,136620,319962,93924,2055,100945,324207,320977,324813,NA,324207,NA,Sternberg Task ,43,26582,44,yes,1024
97.77777778,97.77777778,600.5111111,600.5111111,black,experiment,legacy,legacy,legacy,0,uniform,1,undefined,1,left,44,0,44,44,0,0,44,44,0,0,44,44,44,NA,44,0,Fri Oct 23 19:50:01 2020,The main experiment item,yes,NA,SternbergTask.osexp,/Users/kaylaredder/Desktop/Tarleton /AdvancedQuant/Lab3,no,mono,no,18,no,white,no,yes,768,legacy,32,11,/Users/kaylaredder/Desktop/Tarleton /AdvancedQuant/Lab3/LR-subject-3.csv,legacy,9 1 6 7 8,Lentiform Loewenfeld,3.3.5,1,y,0,left,left,left,left,NA,441,26567,35675,441,NA,2,legacy,5,1024,2,48000,-16,experiment,3,odd,9,328135,28639,324834,325891,2002,136620,325904,93924,2055,100945,330149,326919,330591,NA,330149,NA,Sternberg Task ,44,27023,45,yes,1024
97.82608696,97.82608696,600.3695652,600.3695652,black,experiment,legacy,legacy,legacy,0,uniform,1,undefined,1,right,45,0,45,45,0,0,45,45,0,0,45,45,45,NA,45,0,Fri Oct 23 19:50:01 2020,The main experiment item,yes,NA,SternbergTask.osexp,/Users/kaylaredder/Desktop/Tarleton /AdvancedQuant/Lab3,no,mono,no,18,no,white,no,yes,768,legacy,33,11,/Users/kaylaredder/Desktop/Tarleton /AdvancedQuant/Lab3/LR-subject-3.csv,legacy,7 8 6 1,Lentiform Loewenfeld,3.3.5,0,n,0,right,left,left,right,NA,594,26567,35675,594,NA,2,legacy,4,1024,2,48000,-16,experiment,3,odd,3,333917,28639,330617,331672,2002,136620,331685,93924,2055,100945,335931,332700,336526,NA,335931,NA,Sternberg Task ,45,27617,46,yes,1024
95.74468085,95.74468085,604.6170213,604.6170213,black,experiment,legacy,legacy,legacy,0,uniform,0,undefined,0,left,46,0,46,46,0,0,46,46,0,0,46,46,46,NA,46,0,Fri Oct 23 19:50:01 2020,The main experiment item,yes,NA,SternbergTask.osexp,/Users/kaylaredder/Desktop/Tarleton /AdvancedQuant/Lab3,no,mono,no,18,no,white,no,yes,768,legacy,34,11,/Users/kaylaredder/Desktop/Tarleton /AdvancedQuant/Lab3/LR-subject-3.csv,legacy,8 5 3 7 4 6,Lentiform Loewenfeld,3.3.5,6,y,0,right,left,left,right,NA,800,26567,35675,800,NA,2,legacy,6,1024,2,48000,-16,experiment,3,odd,6,339848,28639,336548,337603,2002,136620,337616,93924,2055,100945,341862,338631,342663,NA,341862,NA,Sternberg Task ,45,28417,47,yes,1024
95.83333333,95.83333333,601.7708333,601.7708333,black,experiment,legacy,legacy,legacy,0,uniform,1,undefined,1,right,47,0,47,47,0,0,47,47,0,0,47,47,47,NA,47,0,Fri Oct 23 19:50:01 2020,The main experiment item,yes,NA,SternbergTask.osexp,/Users/kaylaredder/Desktop/Tarleton /AdvancedQuant/Lab3,no,mono,no,18,no,white,no,yes,768,legacy,35,11,/Users/kaylaredder/Desktop/Tarleton /AdvancedQuant/Lab3/LR-subject-3.csv,legacy,3 4 2,Lentiform Loewenfeld,3.3.5,0,n,0,right,left,left,right,NA,468,26567,35675,468,NA,2,legacy,3,1024,2,48000,-16,experiment,3,odd,5,345985,28639,336548,343740,2002,136620,343752,342685,2055,100945,347999,344768,348467,NA,347999,NA,Sternberg Task ,46,28885,48,yes,1024
95.91836735,95.91836735,599.7346939,599.7346939,black,experiment,legacy,legacy,legacy,0,uniform,1,undefined,1,right,48,0,48,48,0,0,48,48,0,0,48,48,48,NA,48,0,Fri Oct 23 19:50:01 2020,The main experiment item,yes,NA,SternbergTask.osexp,/Users/kaylaredder/Desktop/Tarleton /AdvancedQuant/Lab3,no,mono,no,18,no,white,no,yes,768,legacy,36,11,/Users/kaylaredder/Desktop/Tarleton /AdvancedQuant/Lab3/LR-subject-3.csv,legacy,6 8 4,Lentiform Loewenfeld,3.3.5,0,n,0,right,left,left,right,NA,502,26567,35675,502,NA,2,legacy,3,1024,2,48000,-16,experiment,3,odd,1,351791,28639,348488,349545,2002,136620,349558,342685,2055,100945,353805,350573,354307,NA,353805,NA,Sternberg Task ,47,29387,49,yes,1024
96,96,598.1,598.1,black,experiment,legacy,legacy,legacy,0,uniform,1,undefined,1,left,49,0,49,49,0,0,49,49,0,0,49,49,49,NA,49,0,Fri Oct 23 19:50:01 2020,The main experiment item,yes,NA,SternbergTask.osexp,/Users/kaylaredder/Desktop/Tarleton /AdvancedQuant/Lab3,no,mono,no,18,no,white,no,yes,768,legacy,37,11,/Users/kaylaredder/Desktop/Tarleton /AdvancedQuant/Lab3/LR-subject-3.csv,legacy,7 8 4 6 9 5,Lentiform Loewenfeld,3.3.5,4,y,0,left,left,left,left,NA,518,26567,35675,518,NA,2,legacy,6,1024,2,48000,-16,experiment,3,odd,6,357628,28639,354328,355384,2002,136620,355397,342685,2055,100945,359642,356412,360160,NA,359642,NA,Sternberg Task ,48,29905,50,yes,1024
96.07843137,96.07843137,600.7647059,600.7647059,black,experiment,legacy,legacy,legacy,0,uniform,1,undefined,1,left,50,0,50,50,0,0,50,50,0,0,50,50,50,NA,50,0,Fri Oct 23 19:50:01 2020,The main experiment item,yes,NA,SternbergTask.osexp,/Users/kaylaredder/Desktop/Tarleton /AdvancedQuant/Lab3,no,mono,no,18,no,white,no,yes,768,legacy,38,11,/Users/kaylaredder/Desktop/Tarleton /AdvancedQuant/Lab3/LR-subject-3.csv,legacy,4 3 2 5 8,Lentiform Loewenfeld,3.3.5,2,y,0,left,left,left,left,NA,734,26567,35675,734,NA,2,legacy,5,1024,2,48000,-16,experiment,3,odd,3,363481,28639,360181,361237,2002,136620,361250,342685,2055,100945,365495,362265,366230,NA,365495,NA,Sternberg Task ,49,30639,51,yes,1024
96.15384615,96.15384615,597.4038462,597.4038462,black,experiment,legacy,legacy,legacy,0,uniform,1,undefined,1,left,51,0,51,51,0,0,51,51,0,0,51,51,51,NA,51,0,Fri Oct 23 19:50:01 2020,The main experiment item,yes,NA,SternbergTask.osexp,/Users/kaylaredder/Desktop/Tarleton /AdvancedQuant/Lab3,no,mono,no,18,no,white,no,yes,768,legacy,39,11,/Users/kaylaredder/Desktop/Tarleton /AdvancedQuant/Lab3/LR-subject-3.csv,legacy,7 1 3,Lentiform Loewenfeld,3.3.5,2,y,0,left,left,left,left,NA,426,26567,35675,426,NA,2,legacy,3,1024,2,48000,-16,experiment,3,odd,1,369550,28639,366251,367307,2002,136620,367320,342685,2055,100945,371564,368334,371991,NA,371564,NA,Sternberg Task ,50,31065,52,yes,1024
96.22641509,96.22641509,599.4528302,599.4528302,black,experiment,legacy,legacy,legacy,0,uniform,1,undefined,1,right,52,0,52,52,0,0,52,52,0,0,52,52,52,NA,52,0,Fri Oct 23 19:50:01 2020,The main experiment item,yes,NA,SternbergTask.osexp,/Users/kaylaredder/Desktop/Tarleton /AdvancedQuant/Lab3,no,mono,no,18,no,white,no,yes,768,legacy,40,11,/Users/kaylaredder/Desktop/Tarleton /AdvancedQuant/Lab3/LR-subject-3.csv,legacy,2 8 9 4 1,Lentiform Loewenfeld,3.3.5,0,n,0,right,left,left,right,NA,706,26567,35675,706,NA,2,legacy,5,1024,2,48000,-16,experiment,3,odd,5,375311,28639,372012,373067,2002,136620,373080,342685,2055,100945,377325,374095,378032,NA,377325,NA,Sternberg Task ,51,31771,53,yes,1024
94.44444444,94.44444444,597.2407407,597.2407407,black,experiment,legacy,legacy,legacy,0,uniform,0,undefined,0,left,53,0,53,53,0,0,53,53,0,0,53,53,53,NA,53,0,Fri Oct 23 19:50:01 2020,The main experiment item,yes,NA,SternbergTask.osexp,/Users/kaylaredder/Desktop/Tarleton /AdvancedQuant/Lab3,no,mono,no,18,no,white,no,yes,768,legacy,41,11,/Users/kaylaredder/Desktop/Tarleton /AdvancedQuant/Lab3/LR-subject-3.csv,legacy,4 6 5 8,Lentiform Loewenfeld,3.3.5,1,y,0,right,left,left,right,NA,480,26567,35675,480,NA,2,legacy,4,1024,2,48000,-16,experiment,3,odd,4,381353,28639,378051,379108,2002,136620,379121,342685,2055,100945,383367,380136,383848,NA,383367,NA,Sternberg Task ,51,32251,54,yes,1024
94.54545455,94.54545455,595.8727273,595.8727273,black,experiment,legacy,legacy,legacy,0,uniform,1,undefined,1,right,54,0,54,54,0,0,54,54,0,0,54,54,54,NA,54,0,Fri Oct 23 19:50:01 2020,The main experiment item,yes,NA,SternbergTask.osexp,/Users/kaylaredder/Desktop/Tarleton /AdvancedQuant/Lab3,no,mono,no,18,no,white,no,yes,768,legacy,42,11,/Users/kaylaredder/Desktop/Tarleton /AdvancedQuant/Lab3/LR-subject-3.csv,legacy,5 2,Lentiform Loewenfeld,3.3.5,0,n,0,right,left,left,right,NA,522,26567,35675,522,NA,2,legacy,2,1024,2,48000,-16,experiment,3,odd,7,387167,28639,378051,384924,2002,136620,384937,383869,2055,100945,389181,385951,389704,NA,389181,NA,Sternberg Task ,52,32773,55,yes,1024
92.85714286,92.85714286,597.875,597.875,black,experiment,legacy,legacy,legacy,0,uniform,0,undefined,0,right,55,0,55,55,0,0,55,55,0,0,55,55,55,NA,55,0,Fri Oct 23 19:50:01 2020,The main experiment item,yes,NA,SternbergTask.osexp,/Users/kaylaredder/Desktop/Tarleton /AdvancedQuant/Lab3,no,mono,no,18,no,white,no,yes,768,legacy,43,11,/Users/kaylaredder/Desktop/Tarleton /AdvancedQuant/Lab3/LR-subject-3.csv,legacy,6 9 5,Lentiform Loewenfeld,3.3.5,0,n,0,left,left,left,left,NA,708,26567,35675,708,NA,2,legacy,3,1024,2,48000,-16,experiment,3,odd,8,393027,28639,389727,390783,2002,136620,390796,383869,2055,100945,395041,391811,395750,NA,395041,NA,Sternberg Task ,52,33481,56,yes,1024
91.22807018,91.22807018,595.9824561,595.9824561,black,experiment,legacy,legacy,legacy,0,uniform,0,undefined,0,right,56,0,56,56,0,0,56,56,0,0,56,56,56,NA,56,0,Fri Oct 23 19:50:01 2020,The main experiment item,yes,NA,SternbergTask.osexp,/Users/kaylaredder/Desktop/Tarleton /AdvancedQuant/Lab3,no,mono,no,18,no,white,no,yes,768,legacy,44,11,/Users/kaylaredder/Desktop/Tarleton /AdvancedQuant/Lab3/LR-subject-3.csv,legacy,9,Lentiform Loewenfeld,3.3.5,0,n,0,left,left,left,left,NA,490,26567,35675,490,NA,2,legacy,1,1024,2,48000,-16,experiment,3,odd,6,399071,28639,389727,396828,2002,136620,396841,395771,2055,100945,401086,397856,401577,NA,401086,NA,Sternberg Task ,52,33971,57,yes,1024
89.65517241,89.65517241,594.2068966,594.2068966,black,experiment,legacy,legacy,legacy,0,uniform,0,undefined,0,right,57,0,57,57,0,0,57,57,0,0,57,57,57,NA,57,0,Fri Oct 23 19:50:01 2020,The main experiment item,yes,NA,SternbergTask.osexp,/Users/kaylaredder/Desktop/Tarleton /AdvancedQuant/Lab3,no,mono,no,18,no,white,no,yes,768,legacy,45,11,/Users/kaylaredder/Desktop/Tarleton /AdvancedQuant/Lab3/LR-subject-3.csv,legacy,6 9 4 5 3 2,Lentiform Loewenfeld,3.3.5,0,n,0,left,left,left,left,NA,493,26567,35675,493,NA,2,legacy,6,1024,2,48000,-16,experiment,3,odd,8,404900,28639,389727,402655,2002,136620,402668,401600,2055,100945,406914,403683,407408,NA,406914,NA,Sternberg Task ,52,34464,58,yes,1024
89.83050847,89.83050847,598.9661017,598.9661017,black,experiment,legacy,legacy,legacy,0,uniform,1,undefined,1,right,58,0,58,58,0,0,58,58,0,0,58,58,58,NA,58,0,Fri Oct 23 19:50:01 2020,The main experiment item,yes,NA,SternbergTask.osexp,/Users/kaylaredder/Desktop/Tarleton /AdvancedQuant/Lab3,no,mono,no,18,no,white,no,yes,768,legacy,46,11,/Users/kaylaredder/Desktop/Tarleton /AdvancedQuant/Lab3/LR-subject-3.csv,legacy,2 8 7 9 5 3,Lentiform Loewenfeld,3.3.5,0,n,0,right,left,left,right,NA,875,26567,35675,875,NA,2,legacy,6,1024,2,48000,-16,experiment,3,odd,6,410729,28639,389727,408484,2002,136620,408498,407428,2055,100945,412743,409513,413619,NA,412743,NA,Sternberg Task ,53,35339,59,yes,1024
90,90,599.8166667,599.8166667,black,experiment,legacy,legacy,legacy,0,uniform,1,undefined,1,left,59,0,59,59,0,0,59,59,0,0,59,59,59,NA,59,0,Fri Oct 23 19:50:01 2020,The main experiment item,yes,NA,SternbergTask.osexp,/Users/kaylaredder/Desktop/Tarleton /AdvancedQuant/Lab3,no,mono,no,18,no,white,no,yes,768,legacy,47,11,/Users/kaylaredder/Desktop/Tarleton /AdvancedQuant/Lab3/LR-subject-3.csv,legacy,7 6,Lentiform Loewenfeld,3.3.5,2,y,0,left,left,left,left,NA,650,26567,35675,650,NA,2,legacy,2,1024,2,48000,-16,experiment,3,odd,6,416938,28639,413639,414694,2002,136620,414707,407428,2055,100945,418953,415722,419603,NA,418953,NA,Sternberg Task ,54,35989,60,yes,1024
90.16393443,90.16393443,601.5081967,601.5081967,black,experiment,legacy,legacy,legacy,0,uniform,1,undefined,1,right,60,0,60,60,0,0,60,60,0,0,60,60,60,NA,60,0,Fri Oct 23 19:50:01 2020,The main experiment item,yes,NA,SternbergTask.osexp,/Users/kaylaredder/Desktop/Tarleton /AdvancedQuant/Lab3,no,mono,no,18,no,white,no,yes,768,legacy,48,11,/Users/kaylaredder/Desktop/Tarleton /AdvancedQuant/Lab3/LR-subject-3.csv,legacy,9 7 4 5 8,Lentiform Loewenfeld,3.3.5,0,n,0,right,left,left,right,NA,703,26567,35675,703,NA,2,legacy,5,1024,2,48000,-16,experiment,3,odd,6,422926,28639,419624,420681,2002,136620,420693,407428,2055,100945,424940,421708,425644,NA,424940,NA,Sternberg Task ,55,36692,61,yes,1024
90.32258065,90.32258065,602.7258065,602.7258065,black,experiment,legacy,legacy,legacy,0,uniform,1,undefined,1,right,61,0,61,61,0,0,61,61,0,0,61,61,61,NA,61,0,Fri Oct 23 19:50:01 2020,The main experiment item,yes,NA,SternbergTask.osexp,/Users/kaylaredder/Desktop/Tarleton /AdvancedQuant/Lab3,no,mono,no,18,no,white,no,yes,768,legacy,49,11,/Users/kaylaredder/Desktop/Tarleton /AdvancedQuant/Lab3/LR-subject-3.csv,legacy,2 8 6 3 1,Lentiform Loewenfeld,3.3.5,0,n,0,right,left,left,right,NA,677,26567,35675,677,NA,2,legacy,5,1024,2,48000,-16,experiment,3,odd,7,428963,28639,425665,426721,2002,136620,426733,407428,2055,100945,430977,427749,431655,NA,430977,NA,Sternberg Task ,56,37369,62,yes,1024
90.47619048,90.47619048,600,600,black,experiment,legacy,legacy,legacy,0,uniform,1,undefined,1,right,62,0,62,62,0,0,62,62,0,0,62,62,62,NA,62,0,Fri Oct 23 19:50:01 2020,The main experiment item,yes,NA,SternbergTask.osexp,/Users/kaylaredder/Desktop/Tarleton /AdvancedQuant/Lab3,no,mono,no,18,no,white,no,yes,768,legacy,50,11,/Users/kaylaredder/Desktop/Tarleton /AdvancedQuant/Lab3/LR-subject-3.csv,legacy,7 9,Lentiform Loewenfeld,3.3.5,0,n,0,right,left,left,right,NA,431,26567,35675,431,NA,2,legacy,2,1024,2,48000,-16,experiment,3,odd,1,434976,28639,431675,432731,2002,136620,432744,407428,2055,100945,436990,433759,437422,NA,436989,NA,Sternberg Task ,57,37800,63,yes,1024
90.625,90.625,599.59375,599.59375,black,experiment,legacy,legacy,legacy,0,uniform,1,undefined,1,right,63,0,63,63,0,0,63,63,0,0,63,63,63,NA,63,0,Fri Oct 23 19:50:01 2020,The main experiment item,yes,NA,SternbergTask.osexp,/Users/kaylaredder/Desktop/Tarleton /AdvancedQuant/Lab3,no,mono,no,18,no,white,no,yes,768,legacy,51,11,/Users/kaylaredder/Desktop/Tarleton /AdvancedQuant/Lab3/LR-subject-3.csv,legacy,8 2 1 4 5 9,Lentiform Loewenfeld,3.3.5,0,n,0,right,left,left,right,NA,574,26567,35675,574,NA,2,legacy,6,1024,2,48000,-16,experiment,3,odd,7,440742,28639,437443,438499,2002,136620,438511,407428,2055,100945,442756,439526,443331,NA,442756,NA,Sternberg Task ,58,38374,64,yes,1024
90.76923077,90.76923077,600.3384615,600.3384615,black,experiment,legacy,legacy,legacy,0,uniform,1,undefined,1,left,64,0,64,64,0,0,64,64,0,0,64,64,64,NA,64,0,Fri Oct 23 19:50:01 2020,The main experiment item,yes,NA,SternbergTask.osexp,/Users/kaylaredder/Desktop/Tarleton /AdvancedQuant/Lab3,no,mono,no,18,no,white,no,yes,768,legacy,52,11,/Users/kaylaredder/Desktop/Tarleton /AdvancedQuant/Lab3/LR-subject-3.csv,legacy,9 4 2,Lentiform Loewenfeld,3.3.5,1,y,0,left,left,left,left,NA,648,26567,35675,648,NA,2,legacy,3,1024,2,48000,-16,experiment,3,odd,9,446651,28639,443352,444407,2002,136620,444420,407428,2055,100945,448665,445435,449314,NA,448665,NA,Sternberg Task ,59,39022,65,yes,1024
90.90909091,90.90909091,601.8181818,601.8181818,black,experiment,legacy,legacy,legacy,0,uniform,1,undefined,1,right,65,0,65,65,0,0,65,65,0,0,65,65,65,NA,65,0,Fri Oct 23 19:50:01 2020,The main experiment item,yes,NA,SternbergTask.osexp,/Users/kaylaredder/Desktop/Tarleton /AdvancedQuant/Lab3,no,mono,no,18,no,white,no,yes,768,legacy,53,11,/Users/kaylaredder/Desktop/Tarleton /AdvancedQuant/Lab3/LR-subject-3.csv,legacy,1 8 7,Lentiform Loewenfeld,3.3.5,0,n,0,right,left,left,right,NA,698,26567,35675,698,NA,2,legacy,3,1024,2,48000,-16,experiment,3,odd,4,452636,28639,449337,450392,2002,136620,450405,407428,2055,100945,454651,451420,455350,NA,454651,NA,Sternberg Task ,60,39720,66,yes,1024
91.04477612,91.04477612,602.4328358,602.4328358,black,experiment,legacy,legacy,legacy,0,uniform,1,undefined,1,right,66,0,66,66,0,0,66,66,0,0,66,66,66,NA,66,0,Fri Oct 23 19:50:01 2020,The main experiment item,yes,NA,SternbergTask.osexp,/Users/kaylaredder/Desktop/Tarleton /AdvancedQuant/Lab3,no,mono,no,18,no,white,no,yes,768,legacy,54,11,/Users/kaylaredder/Desktop/Tarleton /AdvancedQuant/Lab3/LR-subject-3.csv,legacy,1 6 4,Lentiform Loewenfeld,3.3.5,0,n,0,right,left,left,right,NA,643,26567,35675,643,NA,2,legacy,3,1024,2,48000,-16,experiment,3,odd,7,458671,28639,455371,456427,2002,136620,456440,407428,2055,100945,460685,457455,461329,NA,460685,NA,Sternberg Task ,61,40363,67,yes,1024
91.17647059,91.17647059,599.4705882,599.4705882,black,experiment,legacy,legacy,legacy,0,uniform,1,undefined,1,left,67,0,67,67,0,0,67,67,0,0,67,67,67,NA,67,0,Fri Oct 23 19:50:01 2020,The main experiment item,yes,NA,SternbergTask.osexp,/Users/kaylaredder/Desktop/Tarleton /AdvancedQuant/Lab3,no,mono,no,18,no,white,no,yes,768,legacy,55,11,/Users/kaylaredder/Desktop/Tarleton /AdvancedQuant/Lab3/LR-subject-3.csv,legacy,8 3,Lentiform Loewenfeld,3.3.5,2,y,0,left,left,left,left,NA,401,26567,35675,401,NA,2,legacy,2,1024,2,48000,-16,experiment,3,odd,3,464649,28639,461350,462405,2002,136620,462418,407428,2055,100945,466664,463433,467066,NA,466663,NA,Sternberg Task ,62,40764,68,yes,1024
91.30434783,91.30434783,599.2028986,599.2028986,black,experiment,legacy,legacy,legacy,0,uniform,1,undefined,1,right,68,0,68,68,0,0,68,68,0,0,68,68,68,NA,68,0,Fri Oct 23 19:50:01 2020,The main experiment item,yes,NA,SternbergTask.osexp,/Users/kaylaredder/Desktop/Tarleton /AdvancedQuant/Lab3,no,mono,no,18,no,white,no,yes,768,legacy,56,11,/Users/kaylaredder/Desktop/Tarleton /AdvancedQuant/Lab3/LR-subject-3.csv,legacy,1 3 2 6 9,Lentiform Loewenfeld,3.3.5,0,n,0,right,left,left,right,NA,581,26567,35675,581,NA,2,legacy,5,1024,2,48000,-16,experiment,3,odd,5,470385,28639,467086,468141,2002,136620,468154,407428,2055,100945,472399,469169,472981,NA,472399,NA,Sternberg Task ,63,41345,69,yes,1024
91.42857143,91.42857143,598.5571429,598.5571429,black,experiment,legacy,legacy,legacy,0,uniform,1,undefined,1,right,69,0,69,69,0,0,69,69,0,0,69,69,69,NA,69,0,Fri Oct 23 19:50:01 2020,The main experiment item,yes,NA,SternbergTask.osexp,/Users/kaylaredder/Desktop/Tarleton /AdvancedQuant/Lab3,no,mono,no,18,no,white,no,yes,768,legacy,57,11,/Users/kaylaredder/Desktop/Tarleton /AdvancedQuant/Lab3/LR-subject-3.csv,legacy,2 3 8 5 6 7,Lentiform Loewenfeld,3.3.5,0,n,0,right,left,left,right,NA,554,26567,35675,554,NA,2,legacy,6,1024,2,48000,-16,experiment,3,odd,1,476303,28639,473002,474059,2002,136620,474072,407428,2055,100945,478317,475087,478872,NA,478317,NA,Sternberg Task ,64,41899,70,yes,1024
91.54929577,91.54929577,597.7746479,597.7746479,black,experiment,legacy,legacy,legacy,0,uniform,1,undefined,1,left,70,0,70,70,0,0,70,70,0,0,70,70,70,NA,70,0,Fri Oct 23 19:50:01 2020,The main experiment item,yes,NA,SternbergTask.osexp,/Users/kaylaredder/Desktop/Tarleton /AdvancedQuant/Lab3,no,mono,no,18,no,white,no,yes,768,legacy,58,11,/Users/kaylaredder/Desktop/Tarleton /AdvancedQuant/Lab3/LR-subject-3.csv,legacy,7 1 8 5 6 2,Lentiform Loewenfeld,3.3.5,2,y,0,left,left,left,left,NA,543,26567,35675,543,NA,2,legacy,6,1024,2,48000,-16,experiment,3,odd,1,482194,28639,478894,479950,2002,136620,479963,407428,2055,100945,484208,480978,484752,NA,484208,NA,Sternberg Task ,65,42442,71,yes,1024
91.66666667,91.66666667,596.6805556,596.6805556,black,experiment,legacy,legacy,legacy,0,uniform,1,undefined,1,right,71,0,71,71,0,0,71,71,0,0,71,71,71,NA,71,0,Fri Oct 23 19:50:01 2020,The main experiment item,yes,NA,SternbergTask.osexp,/Users/kaylaredder/Desktop/Tarleton /AdvancedQuant/Lab3,no,mono,no,18,no,white,no,yes,768,legacy,59,11,/Users/kaylaredder/Desktop/Tarleton /AdvancedQuant/Lab3/LR-subject-3.csv,legacy,1 7 5 2,Lentiform Loewenfeld,3.3.5,0,n,0,right,left,left,right,NA,519,26567,35675,519,NA,2,legacy,4,1024,2,48000,-16,experiment,3,odd,3,488074,28639,484774,485830,2002,136620,485843,407428,2055,100945,490102,486858,490621,NA,490102,NA,Sternberg Task ,66,42961,72,yes,1024
91.78082192,91.78082192,595.3013699,595.3013699,black,experiment,legacy,legacy,legacy,0,uniform,1,undefined,1,right,72,0,72,72,0,0,72,72,0,0,72,72,72,NA,72,0,Fri Oct 23 19:50:01 2020,The main experiment item,yes,NA,SternbergTask.osexp,/Users/kaylaredder/Desktop/Tarleton /AdvancedQuant/Lab3,no,mono,no,18,no,white,no,yes,768,legacy,60,11,/Users/kaylaredder/Desktop/Tarleton /AdvancedQuant/Lab3/LR-subject-3.csv,legacy,8 6 3 4 7,Lentiform Loewenfeld,3.3.5,0,n,0,right,left,left,right,NA,496,26567,35675,496,NA,2,legacy,5,1024,2,48000,-16,experiment,3,odd,1,493946,28639,490647,491702,2002,136620,491715,407428,2055,100945,495960,492730,496456,NA,495960,NA,Sternberg Task ,67,43457,73,yes,1024
91.89189189,91.89189189,595.1216216,595.1216216,black,experiment,legacy,legacy,legacy,0,uniform,1,undefined,1,right,73,0,73,73,0,0,73,73,0,0,73,73,73,NA,73,0,Fri Oct 23 19:50:01 2020,The main experiment item,yes,NA,SternbergTask.osexp,/Users/kaylaredder/Desktop/Tarleton /AdvancedQuant/Lab3,no,mono,no,18,no,white,no,yes,768,legacy,61,11,/Users/kaylaredder/Desktop/Tarleton /AdvancedQuant/Lab3/LR-subject-3.csv,legacy,1 7 8 3 9,Lentiform Loewenfeld,3.3.5,0,n,0,right,left,left,right,NA,582,26567,35675,582,NA,2,legacy,5,1024,2,48000,-16,experiment,3,odd,2,499777,28639,496478,497534,2002,136620,497546,407428,2055,100945,501792,498561,502375,NA,501792,NA,Sternberg Task ,68,44039,74,yes,1024
92,92,593.84,593.84,black,experiment,legacy,legacy,legacy,0,uniform,1,undefined,1,right,74,0,74,74,0,0,74,74,0,0,74,74,74,NA,74,0,Fri Oct 23 19:50:01 2020,The main experiment item,yes,NA,SternbergTask.osexp,/Users/kaylaredder/Desktop/Tarleton /AdvancedQuant/Lab3,no,mono,no,18,no,white,no,yes,768,legacy,62,11,/Users/kaylaredder/Desktop/Tarleton /AdvancedQuant/Lab3/LR-subject-3.csv,legacy,2 7 5,Lentiform Loewenfeld,3.3.5,0,n,0,right,left,left,right,NA,499,26567,35675,499,NA,2,legacy,3,1024,2,48000,-16,experiment,3,odd,8,505696,28639,502397,503452,2002,136620,503465,407428,2055,100945,507710,504480,508210,NA,507710,NA,Sternberg Task ,69,44538,75,yes,1024
92.10526316,92.10526316,594.75,594.75,black,experiment,legacy,legacy,legacy,0,uniform,1,undefined,1,right,75,0,75,75,0,0,75,75,0,0,75,75,75,NA,75,0,Fri Oct 23 19:50:01 2020,The main experiment item,yes,NA,SternbergTask.osexp,/Users/kaylaredder/Desktop/Tarleton /AdvancedQuant/Lab3,no,mono,no,18,no,white,no,yes,768,legacy,63,11,/Users/kaylaredder/Desktop/Tarleton /AdvancedQuant/Lab3/LR-subject-3.csv,legacy,7 4 2 8 1 9,Lentiform Loewenfeld,3.3.5,0,n,0,right,left,left,right,NA,663,26567,35675,663,NA,2,legacy,6,1024,2,48000,-16,experiment,3,odd,5,511533,28639,508232,509288,2002,136620,509301,407428,2055,100945,513548,510316,514212,NA,513548,NA,Sternberg Task ,70,45201,76,yes,1024
92.20779221,92.20779221,599.4155844,599.4155844,black,experiment,legacy,legacy,legacy,0,uniform,1,undefined,1,right,76,0,76,76,0,0,76,76,0,0,76,76,76,NA,76,0,Fri Oct 23 19:50:01 2020,The main experiment item,yes,NA,SternbergTask.osexp,/Users/kaylaredder/Desktop/Tarleton /AdvancedQuant/Lab3,no,mono,no,18,no,white,no,yes,768,legacy,64,11,/Users/kaylaredder/Desktop/Tarleton /AdvancedQuant/Lab3/LR-subject-3.csv,legacy,3 9 1,Lentiform Loewenfeld,3.3.5,0,n,0,right,left,left,right,NA,954,26567,35675,954,NA,2,legacy,3,1024,2,48000,-16,experiment,3,odd,7,517535,28639,514234,515290,2002,136620,515303,407428,2055,100945,519549,516318,520504,NA,519549,NA,Sternberg Task ,71,46155,77,yes,1024
92.30769231,92.30769231,607.0512821,607.0512821,black,experiment,legacy,legacy,legacy,0,uniform,1,undefined,1,left,77,0,77,77,0,0,77,77,0,0,77,77,77,NA,77,0,Fri Oct 23 19:50:01 2020,The main experiment item,yes,NA,SternbergTask.osexp,/Users/kaylaredder/Desktop/Tarleton /AdvancedQuant/Lab3,no,mono,no,18,no,white,no,yes,768,legacy,65,11,/Users/kaylaredder/Desktop/Tarleton /AdvancedQuant/Lab3/LR-subject-3.csv,legacy,6 1 2,Lentiform Loewenfeld,3.3.5,3,y,0,left,left,left,left,NA,1195,26567,35675,1195,NA,2,legacy,3,1024,2,48000,-16,experiment,3,odd,2,523827,28639,520525,521582,2002,136620,521595,407428,2055,100945,525841,522610,527037,NA,525841,NA,Sternberg Task ,72,47350,78,yes,1024
92.40506329,92.40506329,607.278481,607.278481,black,experiment,legacy,legacy,legacy,0,uniform,1,undefined,1,right,78,0,78,78,0,0,78,78,0,0,78,78,78,NA,78,0,Fri Oct 23 19:50:01 2020,The main experiment item,yes,NA,SternbergTask.osexp,/Users/kaylaredder/Desktop/Tarleton /AdvancedQuant/Lab3,no,mono,no,18,no,white,no,yes,768,legacy,66,11,/Users/kaylaredder/Desktop/Tarleton /AdvancedQuant/Lab3/LR-subject-3.csv,legacy,1 7 5 2 9,Lentiform Loewenfeld,3.3.5,0,n,0,right,left,left,right,NA,625,26567,35675,625,NA,2,legacy,5,1024,2,48000,-16,experiment,3,odd,3,530359,28639,527059,528114,2002,136620,528127,407428,2055,100945,532374,529143,533000,NA,532374,NA,Sternberg Task ,73,47975,79,yes,1024
92.5,92.5,606.0625,606.0625,black,experiment,legacy,legacy,legacy,0,uniform,1,undefined,1,left,79,0,79,79,0,0,79,79,0,0,79,79,79,NA,79,0,Fri Oct 23 19:50:01 2020,The main experiment item,yes,NA,SternbergTask.osexp,/Users/kaylaredder/Desktop/Tarleton /AdvancedQuant/Lab3,no,mono,no,18,no,white,no,yes,768,legacy,67,11,/Users/kaylaredder/Desktop/Tarleton /AdvancedQuant/Lab3/LR-subject-3.csv,legacy,6 7 9 3 1 2,Lentiform Loewenfeld,3.3.5,1,y,0,left,left,left,left,NA,510,26567,35675,510,NA,2,legacy,6,1024,2,48000,-16,experiment,3,odd,6,536320,28639,533020,534076,2002,136620,534089,407428,2055,100945,538334,535104,538845,NA,538334,NA,Sternberg Task ,74,48485,80,yes,1024
91.35802469,91.35802469,605.6049383,605.6049383,black,experiment,legacy,legacy,legacy,0,uniform,0,undefined,0,right,80,0,80,80,0,0,80,80,0,0,80,80,80,NA,80,0,Fri Oct 23 19:50:01 2020,The main experiment item,yes,NA,SternbergTask.osexp,/Users/kaylaredder/Desktop/Tarleton /AdvancedQuant/Lab3,no,mono,no,18,no,white,no,yes,768,legacy,68,11,/Users/kaylaredder/Desktop/Tarleton /AdvancedQuant/Lab3/LR-subject-3.csv,legacy,3 4 9 6 7 8,Lentiform Loewenfeld,3.3.5,0,n,0,left,left,left,left,NA,569,26567,35675,569,NA,2,legacy,6,1024,2,48000,-16,experiment,3,odd,2,542168,28639,538868,539924,2002,136620,539937,407428,2055,100945,544182,540952,544752,NA,544182,NA,Sternberg Task ,74,49054,81,yes,1024
91.46341463,91.46341463,604.7317073,604.7317073,black,experiment,legacy,legacy,legacy,0,uniform,1,undefined,1,right,81,0,81,81,0,0,81,81,0,0,81,81,81,NA,81,0,Fri Oct 23 19:50:01 2020,The main experiment item,yes,NA,SternbergTask.osexp,/Users/kaylaredder/Desktop/Tarleton /AdvancedQuant/Lab3,no,mono,no,18,no,white,no,yes,768,legacy,69,11,/Users/kaylaredder/Desktop/Tarleton /AdvancedQuant/Lab3/LR-subject-3.csv,legacy,6 9 4 5 2,Lentiform Loewenfeld,3.3.5,0,n,0,right,left,left,right,NA,534,26567,35675,534,NA,2,legacy,5,1024,2,48000,-16,experiment,3,odd,1,548074,28639,538868,545830,2002,136620,545843,544773,2055,100945,550088,546858,550623,NA,550088,NA,Sternberg Task ,75,49588,82,yes,1024
91.56626506,91.56626506,607.9277108,607.9277108,black,experiment,legacy,legacy,legacy,0,uniform,1,undefined,1,left,82,0,82,82,0,0,82,82,0,0,82,82,82,NA,82,0,Fri Oct 23 19:50:01 2020,The main experiment item,yes,NA,SternbergTask.osexp,/Users/kaylaredder/Desktop/Tarleton /AdvancedQuant/Lab3,no,mono,no,18,no,white,no,yes,768,legacy,70,11,/Users/kaylaredder/Desktop/Tarleton /AdvancedQuant/Lab3/LR-subject-3.csv,legacy,3 9 6 2,Lentiform Loewenfeld,3.3.5,4,y,0,left,left,left,left,NA,870,26567,35675,870,NA,2,legacy,4,1024,2,48000,-16,experiment,3,odd,2,553943,28639,550642,551701,2002,136620,551714,544773,2055,100945,555956,552729,556827,NA,555956,NA,Sternberg Task ,76,50458,83,yes,1024
91.66666667,91.66666667,609.1190476,609.1190476,black,experiment,legacy,legacy,legacy,0,uniform,1,undefined,1,right,83,0,83,83,0,0,83,83,0,0,83,83,83,NA,83,0,Fri Oct 23 19:50:01 2020,The main experiment item,yes,NA,SternbergTask.osexp,/Users/kaylaredder/Desktop/Tarleton /AdvancedQuant/Lab3,no,mono,no,18,no,white,no,yes,768,legacy,71,11,/Users/kaylaredder/Desktop/Tarleton /AdvancedQuant/Lab3/LR-subject-3.csv,legacy,7 3 2 8,Lentiform Loewenfeld,3.3.5,0,n,0,right,left,left,right,NA,708,26567,35675,708,NA,2,legacy,4,1024,2,48000,-16,experiment,3,odd,4,560149,28639,556848,557905,2002,136620,557918,544773,2055,100945,562163,558933,562871,NA,562163,NA,Sternberg Task ,77,51166,84,yes,1024
90.58823529,90.58823529,611.7647059,611.7647059,black,experiment,legacy,legacy,legacy,0,uniform,0,undefined,0,right,84,0,84,84,0,0,84,84,0,0,84,84,84,NA,84,0,Fri Oct 23 19:50:01 2020,The main experiment item,yes,NA,SternbergTask.osexp,/Users/kaylaredder/Desktop/Tarleton /AdvancedQuant/Lab3,no,mono,no,18,no,white,no,yes,768,legacy,72,11,/Users/kaylaredder/Desktop/Tarleton /AdvancedQuant/Lab3/LR-subject-3.csv,legacy,6 7 5 9,Lentiform Loewenfeld,3.3.5,0,n,0,left,left,left,left,NA,834,26567,35675,834,NA,2,legacy,4,1024,2,48000,-16,experiment,3,odd,2,566193,28639,562892,563949,2002,136620,563962,544773,2055,100945,568207,564977,569042,NA,568207,NA,Sternberg Task ,77,52000,85,yes,1024
90.69767442,90.69767442,612.0116279,612.0116279,black,experiment,legacy,legacy,legacy,0,uniform,1,undefined,1,left,85,0,85,85,0,0,85,85,0,0,85,85,85,NA,85,0,Fri Oct 23 19:50:01 2020,The main experiment item,yes,NA,SternbergTask.osexp,/Users/kaylaredder/Desktop/Tarleton /AdvancedQuant/Lab3,no,mono,no,18,no,white,no,yes,768,legacy,73,11,/Users/kaylaredder/Desktop/Tarleton /AdvancedQuant/Lab3/LR-subject-3.csv,legacy,2 3 7 4,Lentiform Loewenfeld,3.3.5,1,y,0,left,left,left,left,NA,633,26567,35675,633,NA,2,legacy,4,1024,2,48000,-16,experiment,3,odd,2,572365,28639,562892,570121,2002,136620,570134,569065,2055,100945,574379,571149,575013,NA,574379,NA,Sternberg Task ,78,52633,86,yes,1024
89.65517241,89.65517241,614.7701149,614.7701149,black,experiment,legacy,legacy,legacy,0,uniform,0,undefined,0,left,86,0,86,86,0,0,86,86,0,0,86,86,86,NA,86,0,Fri Oct 23 19:50:01 2020,The main experiment item,yes,NA,SternbergTask.osexp,/Users/kaylaredder/Desktop/Tarleton /AdvancedQuant/Lab3,no,mono,no,18,no,white,no,yes,768,legacy,74,11,/Users/kaylaredder/Desktop/Tarleton /AdvancedQuant/Lab3/LR-subject-3.csv,legacy,4 1 8 7 5,Lentiform Loewenfeld,3.3.5,3,y,0,right,left,left,right,NA,852,26567,35675,852,NA,2,legacy,5,1024,2,48000,-16,experiment,3,odd,8,578335,28639,575035,576091,2002,136620,576104,569065,2055,100945,580349,577119,581202,NA,580349,NA,Sternberg Task ,78,53485,87,yes,1024
89.77272727,89.77272727,614.125,614.125,black,experiment,legacy,legacy,legacy,0,uniform,1,undefined,1,left,87,0,87,87,0,0,87,87,0,0,87,87,87,NA,87,0,Fri Oct 23 19:50:01 2020,The main experiment item,yes,NA,SternbergTask.osexp,/Users/kaylaredder/Desktop/Tarleton /AdvancedQuant/Lab3,no,mono,no,18,no,white,no,yes,768,legacy,75,11,/Users/kaylaredder/Desktop/Tarleton /AdvancedQuant/Lab3/LR-subject-3.csv,legacy,4 7 6 8 2 3,Lentiform Loewenfeld,3.3.5,6,y,0,left,left,left,left,NA,558,26567,35675,558,NA,2,legacy,6,1024,2,48000,-16,experiment,3,odd,3,584523,28639,575035,582279,2002,136620,582292,581223,2055,100945,586537,583307,587096,NA,586537,NA,Sternberg Task ,79,54043,88,yes,1024
89.88764045,89.88764045,613.9550562,613.9550562,black,experiment,legacy,legacy,legacy,0,uniform,1,undefined,1,left,88,0,88,88,0,0,88,88,0,0,88,88,88,NA,88,0,Fri Oct 23 19:50:01 2020,The main experiment item,yes,NA,SternbergTask.osexp,/Users/kaylaredder/Desktop/Tarleton /AdvancedQuant/Lab3,no,mono,no,18,no,white,no,yes,768,legacy,76,11,/Users/kaylaredder/Desktop/Tarleton /AdvancedQuant/Lab3/LR-subject-3.csv,legacy,9 3 1 2 5,Lentiform Loewenfeld,3.3.5,4,y,0,left,left,left,left,NA,599,26567,35675,599,NA,2,legacy,5,1024,2,48000,-16,experiment,3,odd,2,590417,28639,587117,588173,2002,136620,588186,581223,2055,100945,592432,589201,593032,NA,592432,NA,Sternberg Task ,80,54642,89,yes,1024
90,90,613.4333333,613.4333333,black,experiment,legacy,legacy,legacy,0,uniform,1,undefined,1,right,89,0,89,89,0,0,89,89,0,0,89,89,89,NA,89,0,Fri Oct 23 19:50:01 2020,The main experiment item,yes,NA,SternbergTask.osexp,/Users/kaylaredder/Desktop/Tarleton /AdvancedQuant/Lab3,no,mono,no,18,no,white,no,yes,768,legacy,77,11,/Users/kaylaredder/Desktop/Tarleton /AdvancedQuant/Lab3/LR-subject-3.csv,legacy,4 8 1 2,Lentiform Loewenfeld,3.3.5,0,n,0,right,left,left,right,NA,567,26567,35675,567,NA,2,legacy,4,1024,2,48000,-16,experiment,3,odd,7,596353,28639,593054,594109,2002,136620,594123,581223,2055,100945,598367,595138,598935,NA,598367,NA,Sternberg Task ,81,55209,90,yes,1024
90.10989011,90.10989011,617.4835165,617.4835165,black,experiment,legacy,legacy,legacy,0,uniform,1,undefined,1,left,90,0,90,90,0,0,90,90,0,0,90,90,90,NA,90,0,Fri Oct 23 19:50:01 2020,The main experiment item,yes,NA,SternbergTask.osexp,/Users/kaylaredder/Desktop/Tarleton /AdvancedQuant/Lab3,no,mono,no,18,no,white,no,yes,768,legacy,78,11,/Users/kaylaredder/Desktop/Tarleton /AdvancedQuant/Lab3/LR-subject-3.csv,legacy,7 4 2 6 3 5,Lentiform Loewenfeld,3.3.5,6,y,0,left,left,left,left,NA,982,26567,35675,982,NA,2,legacy,6,1024,2,48000,-16,experiment,3,odd,5,602257,28639,598957,600013,2002,136620,600026,581223,2055,100945,604271,601041,605254,NA,604271,NA,Sternberg Task ,82,56191,91,yes,1024
90.2173913,90.2173913,626.7065217,626.7065217,black,experiment,legacy,legacy,legacy,0,uniform,1,undefined,1,left,91,0,91,91,0,0,91,91,0,0,91,91,91,NA,91,0,Fri Oct 23 19:50:01 2020,The main experiment item,yes,NA,SternbergTask.osexp,/Users/kaylaredder/Desktop/Tarleton /AdvancedQuant/Lab3,no,mono,no,18,no,white,no,yes,768,legacy,79,11,/Users/kaylaredder/Desktop/Tarleton /AdvancedQuant/Lab3/LR-subject-3.csv,legacy,5 7 8 2 3 8,Lentiform Loewenfeld,3.3.5,5,y,0,left,left,left,left,NA,1466,26567,35675,1466,NA,2,legacy,6,1024,2,48000,-16,experiment,3,odd,3,608576,28639,605276,606332,2002,136620,606345,581223,2055,100945,610590,607360,612057,NA,610590,NA,Sternberg Task ,83,57657,92,yes,1024
89.24731183,89.24731183,625.3333333,625.3333333,black,experiment,legacy,legacy,legacy,0,uniform,0,undefined,0,right,92,0,92,92,0,0,92,92,0,0,92,92,92,NA,92,0,Fri Oct 23 19:50:01 2020,The main experiment item,yes,NA,SternbergTask.osexp,/Users/kaylaredder/Desktop/Tarleton /AdvancedQuant/Lab3,no,mono,no,18,no,white,no,yes,768,legacy,80,11,/Users/kaylaredder/Desktop/Tarleton /AdvancedQuant/Lab3/LR-subject-3.csv,legacy,9 5 3 2 8 6,Lentiform Loewenfeld,3.3.5,0,n,0,left,left,left,left,NA,499,26567,35675,499,NA,2,legacy,6,1024,2,48000,-16,experiment,3,odd,7,615378,28639,612078,613134,2002,136620,613147,581223,2055,100945,617392,614162,617892,NA,617392,NA,Sternberg Task ,83,58156,93,yes,1024
88.29787234,88.29787234,624.8617021,624.8617021,black,experiment,legacy,legacy,legacy,0,uniform,0,undefined,0,right,93,0,93,93,0,0,93,93,0,0,93,93,93,NA,93,0,Fri Oct 23 19:50:01 2020,The main experiment item,yes,NA,SternbergTask.osexp,/Users/kaylaredder/Desktop/Tarleton /AdvancedQuant/Lab3,no,mono,no,18,no,white,no,yes,768,legacy,81,11,/Users/kaylaredder/Desktop/Tarleton /AdvancedQuant/Lab3/LR-subject-3.csv,legacy,9 8 2 7 4,Lentiform Loewenfeld,3.3.5,0,n,0,left,left,left,left,NA,581,26567,35675,581,NA,2,legacy,5,1024,2,48000,-16,experiment,3,odd,5,621210,28639,612078,618966,2002,136620,618979,617911,2055,100945,623224,619994,623806,NA,623224,NA,Sternberg Task ,83,58737,94,yes,1024
88.42105263,88.42105263,625.4315789,625.4315789,black,experiment,legacy,legacy,legacy,0,uniform,1,undefined,1,left,94,0,94,94,0,0,94,94,0,0,94,94,94,NA,94,0,Fri Oct 23 19:50:01 2020,The main experiment item,yes,NA,SternbergTask.osexp,/Users/kaylaredder/Desktop/Tarleton /AdvancedQuant/Lab3,no,mono,no,18,no,white,no,yes,768,legacy,82,11,/Users/kaylaredder/Desktop/Tarleton /AdvancedQuant/Lab3/LR-subject-3.csv,legacy,3 5 7 1,Lentiform Loewenfeld,3.3.5,3,y,0,left,left,left,left,NA,679,26567,35675,679,NA,2,legacy,4,1024,2,48000,-16,experiment,3,odd,7,627123,28639,612078,624880,2002,136620,624893,623825,2055,100945,629137,625908,629816,NA,629137,NA,Sternberg Task ,84,59416,95,yes,1024
88.54166667,88.54166667,627.875,627.875,black,experiment,legacy,legacy,legacy,0,uniform,1,undefined,1,right,95,0,95,95,0,0,95,95,0,0,95,95,95,NA,95,0,Fri Oct 23 19:50:01 2020,The main experiment item,yes,NA,SternbergTask.osexp,/Users/kaylaredder/Desktop/Tarleton /AdvancedQuant/Lab3,no,mono,no,18,no,white,no,yes,768,legacy,83,11,/Users/kaylaredder/Desktop/Tarleton /AdvancedQuant/Lab3/LR-subject-3.csv,legacy,1 5 3 2 8,Lentiform Loewenfeld,3.3.5,0,n,0,right,left,left,right,NA,860,26567,35675,860,NA,2,legacy,5,1024,2,48000,-16,experiment,3,odd,4,633138,28639,629839,630895,2002,136620,630908,623825,2055,100945,635152,631922,636013,NA,635152,NA,Sternberg Task ,85,60276,96,yes,1024
88.65979381,88.65979381,626.9690722,626.9690722,black,experiment,legacy,legacy,legacy,0,uniform,1,undefined,1,right,96,0,96,96,0,0,96,96,0,0,96,96,96,NA,96,0,Fri Oct 23 19:50:01 2020,The main experiment item,yes,NA,SternbergTask.osexp,/Users/kaylaredder/Desktop/Tarleton /AdvancedQuant/Lab3,no,mono,no,18,no,white,no,yes,768,legacy,84,11,/Users/kaylaredder/Desktop/Tarleton /AdvancedQuant/Lab3/LR-subject-3.csv,legacy,1 4 9 2 5,Lentiform Loewenfeld,3.3.5,0,n,0,right,left,left,right,NA,540,26567,35675,540,NA,2,legacy,5,1024,2,48000,-16,experiment,3,odd,7,639335,28639,636035,637091,2002,136620,637104,623825,2055,100945,641349,638118,641891,NA,641349,NA,Sternberg Task ,86,60816,97,yes,1024
87.75510204,87.75510204,626.9489796,626.9489796,black,experiment,legacy,legacy,legacy,0,uniform,0,undefined,0,right,97,0,97,97,0,0,97,97,0,0,97,97,97,NA,97,0,Fri Oct 23 19:50:01 2020,The main experiment item,yes,NA,SternbergTask.osexp,/Users/kaylaredder/Desktop/Tarleton /AdvancedQuant/Lab3,no,mono,no,18,no,white,no,yes,768,legacy,85,11,/Users/kaylaredder/Desktop/Tarleton /AdvancedQuant/Lab3/LR-subject-3.csv,legacy,6 9 7 3 8 2,Lentiform Loewenfeld,3.3.5,0,n,0,left,left,left,left,NA,625,26567,35675,625,NA,2,legacy,6,1024,2,48000,-16,experiment,3,odd,5,645210,28639,641911,642967,2002,136620,642980,623825,2055,100945,647224,643995,647850,NA,647224,NA,Sternberg Task ,86,61441,98,yes,1024
87.87878788,87.87878788,626.3030303,626.3030303,black,experiment,legacy,legacy,legacy,0,uniform,1,undefined,1,right,98,0,98,98,0,0,98,98,0,0,98,98,98,NA,98,0,Fri Oct 23 19:50:01 2020,The main experiment item,yes,NA,SternbergTask.osexp,/Users/kaylaredder/Desktop/Tarleton /AdvancedQuant/Lab3,no,mono,no,18,no,white,no,yes,768,legacy,86,11,/Users/kaylaredder/Desktop/Tarleton /AdvancedQuant/Lab3/LR-subject-3.csv,legacy,7 1,Lentiform Loewenfeld,3.3.5,0,n,0,right,left,left,right,NA,563,26567,35675,563,NA,2,legacy,2,1024,2,48000,-16,experiment,3,odd,8,651171,28639,641911,648927,2002,136620,648940,647871,2055,100945,653185,649954,653749,NA,653185,NA,Sternberg Task ,87,62004,99,yes,1024
88,88,626.13,626.13,black,experiment,legacy,legacy,legacy,0,uniform,1,undefined,1,right,99,0,99,99,0,0,99,99,0,0,99,99,99,NA,99,0,Fri Oct 23 19:50:01 2020,The main experiment item,yes,NA,SternbergTask.osexp,/Users/kaylaredder/Desktop/Tarleton /AdvancedQuant/Lab3,no,mono,no,18,no,white,no,yes,768,legacy,87,11,/Users/kaylaredder/Desktop/Tarleton /AdvancedQuant/Lab3/LR-subject-3.csv,legacy,2 6 4 3 9,Lentiform Loewenfeld,3.3.5,0,n,0,right,left,left,right,NA,609,26567,35675,609,NA,2,legacy,5,1024,2,48000,-16,experiment,3,odd,1,657070,28639,653770,654827,2002,136620,654840,647871,2055,100945,659085,655855,659695,NA,659085,NA,Sternberg Task ,88,62613,100,yes,1024
88.11881188,88.11881188,625.0990099,625.0990099,black,experiment,legacy,legacy,legacy,0,uniform,1,undefined,1,right,100,0,100,100,0,0,100,100,0,0,100,100,100,NA,100,0,Fri Oct 23 19:50:01 2020,The main experiment item,yes,NA,SternbergTask.osexp,/Users/kaylaredder/Desktop/Tarleton /AdvancedQuant/Lab3,no,mono,no,18,no,white,no,yes,768,legacy,88,11,/Users/kaylaredder/Desktop/Tarleton /AdvancedQuant/Lab3/LR-subject-3.csv,legacy,2 5 1 4,Lentiform Loewenfeld,3.3.5,0,n,0,right,left,left,right,NA,522,26567,35675,522,NA,2,legacy,4,1024,2,48000,-16,experiment,3,odd,6,663018,28639,659717,660774,2002,136620,660788,647871,2055,100945,665033,661803,665556,NA,665033,NA,Sternberg Task ,89,63135,101,yes,1024
88.23529412,88.23529412,623.8529412,623.8529412,black,experiment,legacy,legacy,legacy,0,uniform,1,undefined,1,left,101,0,101,101,0,0,101,101,0,0,101,101,101,NA,101,0,Fri Oct 23 19:50:01 2020,The main experiment item,yes,NA,SternbergTask.osexp,/Users/kaylaredder/Desktop/Tarleton /AdvancedQuant/Lab3,no,mono,no,18,no,white,no,yes,768,legacy,89,11,/Users/kaylaredder/Desktop/Tarleton /AdvancedQuant/Lab3/LR-subject-3.csv,legacy,6 9 7 4 5 1,Lentiform Loewenfeld,3.3.5,2,y,0,left,left,left,left,NA,498,26567,35675,498,NA,2,legacy,6,1024,2,48000,-16,experiment,3,odd,9,668878,28639,665578,666634,2002,136620,666647,647871,2055,100945,670892,667662,671391,NA,670892,NA,Sternberg Task ,90,63633,102,yes,1024
88.34951456,88.34951456,624.8640777,624.8640777,black,experiment,legacy,legacy,legacy,0,uniform,1,undefined,1,right,102,0,102,102,0,0,102,102,0,0,102,102,102,NA,102,0,Fri Oct 23 19:50:01 2020,The main experiment item,yes,NA,SternbergTask.osexp,/Users/kaylaredder/Desktop/Tarleton /AdvancedQuant/Lab3,no,mono,no,18,no,white,no,yes,768,legacy,90,11,/Users/kaylaredder/Desktop/Tarleton /AdvancedQuant/Lab3/LR-subject-3.csv,legacy,4 2 7 6 1 3,Lentiform Loewenfeld,3.3.5,0,n,0,right,left,left,right,NA,728,26567,35675,728,NA,2,legacy,6,1024,2,48000,-16,experiment,3,odd,8,674709,28639,671412,672468,2002,136620,672481,647871,2055,100945,676723,673494,677452,NA,676723,NA,Sternberg Task ,91,64361,103,yes,1024
88.46153846,88.46153846,623.4711538,623.4711538,black,experiment,legacy,legacy,legacy,0,uniform,1,undefined,1,left,103,0,103,103,0,0,103,103,0,0,103,103,103,NA,103,0,Fri Oct 23 19:50:01 2020,The main experiment item,yes,NA,SternbergTask.osexp,/Users/kaylaredder/Desktop/Tarleton /AdvancedQuant/Lab3,no,mono,no,18,no,white,no,yes,768,legacy,91,11,/Users/kaylaredder/Desktop/Tarleton /AdvancedQuant/Lab3/LR-subject-3.csv,legacy,8 5 4 7 3 1,Lentiform Loewenfeld,3.3.5,2,y,0,left,left,left,left,NA,480,26567,35675,480,NA,2,legacy,6,1024,2,48000,-16,experiment,3,odd,5,680772,28639,677473,678528,2002,136620,678541,647871,2055,100945,682787,679556,683268,NA,682787,NA,Sternberg Task ,92,64841,104,yes,1024
88.57142857,88.57142857,623,623,black,experiment,legacy,legacy,legacy,0,uniform,1,undefined,1,right,104,0,104,104,0,0,104,104,0,0,104,104,104,NA,104,0,Fri Oct 23 19:50:01 2020,The main experiment item,yes,NA,SternbergTask.osexp,/Users/kaylaredder/Desktop/Tarleton /AdvancedQuant/Lab3,no,mono,no,18,no,white,no,yes,768,legacy,92,11,/Users/kaylaredder/Desktop/Tarleton /AdvancedQuant/Lab3/LR-subject-3.csv,legacy,3 9 8 1 6 4,Lentiform Loewenfeld,3.3.5,0,n,0,right,left,left,right,NA,574,26567,35675,574,NA,2,legacy,6,1024,2,48000,-16,experiment,3,odd,7,686590,28639,683290,684346,2002,136620,684359,647871,2055,100945,688604,685374,689179,NA,688604,NA,Sternberg Task ,93,65415,105,yes,1024
88.67924528,88.67924528,621.9433962,621.9433962,black,experiment,legacy,legacy,legacy,0,uniform,1,undefined,1,right,105,0,105,105,0,0,105,105,0,0,105,105,105,NA,105,0,Fri Oct 23 19:50:01 2020,The main experiment item,yes,NA,SternbergTask.osexp,/Users/kaylaredder/Desktop/Tarleton /AdvancedQuant/Lab3,no,mono,no,18,no,white,no,yes,768,legacy,93,11,/Users/kaylaredder/Desktop/Tarleton /AdvancedQuant/Lab3/LR-subject-3.csv,legacy,8 9,Lentiform Loewenfeld,3.3.5,0,n,0,right,left,left,right,NA,511,26567,35675,511,NA,2,legacy,2,1024,2,48000,-16,experiment,3,odd,5,692499,28639,689199,690255,2002,136620,690268,647871,2055,100945,694513,691283,695025,NA,694513,NA,Sternberg Task ,94,65926,106,yes,1024
88.78504673,88.78504673,626.7943925,626.7943925,black,experiment,legacy,legacy,legacy,0,uniform,1,undefined,1,right,106,0,106,106,0,0,106,106,0,0,106,106,106,NA,106,0,Fri Oct 23 19:50:01 2020,The main experiment item,yes,NA,SternbergTask.osexp,/Users/kaylaredder/Desktop/Tarleton /AdvancedQuant/Lab3,no,mono,no,18,no,white,no,yes,768,legacy,94,11,/Users/kaylaredder/Desktop/Tarleton /AdvancedQuant/Lab3/LR-subject-3.csv,legacy,8 4 3 9,Lentiform Loewenfeld,3.3.5,0,n,0,right,left,left,right,NA,1141,26567,35675,1141,NA,2,legacy,4,1024,2,48000,-16,experiment,3,odd,5,698348,28639,695047,696103,2002,136620,696116,647871,2055,100945,700362,697132,701504,NA,700362,NA,Sternberg Task ,95,67067,107,yes,1024
88.88888889,88.88888889,628.7685185,628.7685185,black,experiment,legacy,legacy,legacy,0,uniform,1,undefined,1,left,107,0,107,107,0,0,107,107,0,0,107,107,107,NA,107,0,Fri Oct 23 19:50:01 2020,The main experiment item,yes,NA,SternbergTask.osexp,/Users/kaylaredder/Desktop/Tarleton /AdvancedQuant/Lab3,no,mono,no,18,no,white,no,yes,768,legacy,95,11,/Users/kaylaredder/Desktop/Tarleton /AdvancedQuant/Lab3/LR-subject-3.csv,legacy,8 7 3,Lentiform Loewenfeld,3.3.5,1,y,0,left,left,left,left,NA,840,26567,35675,840,NA,2,legacy,3,1024,2,48000,-16,experiment,3,odd,8,704825,28639,701525,702581,2002,136620,702594,647871,2055,100945,706839,703609,707681,NA,706839,NA,Sternberg Task ,96,67907,108,yes,1024
88.99082569,88.99082569,627.9724771,627.9724771,black,experiment,legacy,legacy,legacy,0,uniform,1,undefined,1,left,108,0,108,108,0,0,108,108,0,0,108,108,108,NA,108,0,Fri Oct 23 19:50:01 2020,The main experiment item,yes,NA,SternbergTask.osexp,/Users/kaylaredder/Desktop/Tarleton /AdvancedQuant/Lab3,no,mono,no,18,no,white,no,yes,768,legacy,96,11,/Users/kaylaredder/Desktop/Tarleton /AdvancedQuant/Lab3/LR-subject-3.csv,legacy,2 4 8 5 1 3,Lentiform Loewenfeld,3.3.5,1,y,0,left,left,left,left,NA,542,26567,35675,542,NA,2,legacy,6,1024,2,48000,-16,experiment,3,odd,2,711003,28639,707702,708758,2002,136620,708771,647871,2055,100945,713017,709787,713560,NA,713017,NA,Sternberg Task ,97,68449,109,yes,1024
89.09090909,89.09090909,630.0363636,630.0363636,black,experiment,legacy,legacy,legacy,0,uniform,1,undefined,1,left,109,0,109,109,0,0,109,109,0,0,109,109,109,NA,109,0,Fri Oct 23 19:50:01 2020,The main experiment item,yes,NA,SternbergTask.osexp,/Users/kaylaredder/Desktop/Tarleton /AdvancedQuant/Lab3,no,mono,no,18,no,white,no,yes,768,legacy,97,11,/Users/kaylaredder/Desktop/Tarleton /AdvancedQuant/Lab3/LR-subject-3.csv,legacy,3 2 1 4 7,Lentiform Loewenfeld,3.3.5,2,y,0,left,left,left,left,NA,855,26567,35675,855,NA,2,legacy,5,1024,2,48000,-16,experiment,3,odd,2,716882,28639,713581,714637,2002,136620,714650,647871,2055,100945,718896,715664,719752,NA,718896,NA,Sternberg Task ,98,69304,110,yes,1024
89.18918919,89.18918919,630.036036,630.036036,black,experiment,legacy,legacy,legacy,0,uniform,1,undefined,1,left,110,0,110,110,0,0,110,110,0,0,110,110,110,NA,110,0,Fri Oct 23 19:50:01 2020,The main experiment item,yes,NA,SternbergTask.osexp,/Users/kaylaredder/Desktop/Tarleton /AdvancedQuant/Lab3,no,mono,no,18,no,white,no,yes,768,legacy,98,11,/Users/kaylaredder/Desktop/Tarleton /AdvancedQuant/Lab3/LR-subject-3.csv,legacy,3 5 9 6 2 4,Lentiform Loewenfeld,3.3.5,1,y,0,left,left,left,left,NA,630,26567,35675,630,NA,2,legacy,6,1024,2,48000,-16,experiment,3,odd,3,723076,28639,719775,720832,2002,136620,720845,647871,2055,100945,725090,721860,725721,NA,725090,NA,Sternberg Task ,99,69934,111,yes,1024
88.39285714,88.39285714,630.6696429,630.6696429,black,experiment,legacy,legacy,legacy,0,uniform,0,undefined,0,left,111,0,111,111,0,0,111,111,0,0,111,111,111,NA,111,0,Fri Oct 23 19:50:01 2020,The main experiment item,yes,NA,SternbergTask.osexp,/Users/kaylaredder/Desktop/Tarleton /AdvancedQuant/Lab3,no,mono,no,18,no,white,no,yes,768,legacy,99,11,/Users/kaylaredder/Desktop/Tarleton /AdvancedQuant/Lab3/LR-subject-3.csv,legacy,7 8 6 3 1,Lentiform Loewenfeld,3.3.5,5,y,0,right,left,left,right,NA,701,26567,35675,701,NA,2,legacy,5,1024,2,48000,-16,experiment,3,odd,1,729044,28639,725743,726800,2002,136620,726813,647871,2055,100945,731059,727828,731761,NA,731058,NA,Sternberg Task ,99,70635,112,yes,1024
88.49557522,88.49557522,629.7610619,629.7610619,black,experiment,legacy,legacy,legacy,0,uniform,1,undefined,1,left,112,0,112,112,0,0,112,112,0,0,112,112,112,NA,112,0,Fri Oct 23 19:50:01 2020,The main experiment item,yes,NA,SternbergTask.osexp,/Users/kaylaredder/Desktop/Tarleton /AdvancedQuant/Lab3,no,mono,no,18,no,white,no,yes,768,legacy,100,11,/Users/kaylaredder/Desktop/Tarleton /AdvancedQuant/Lab3/LR-subject-3.csv,legacy,7,Lentiform Loewenfeld,3.3.5,1,y,0,left,left,left,left,NA,528,26567,35675,528,NA,2,legacy,1,1024,2,48000,-16,experiment,3,odd,7,735097,28639,725743,732840,2002,136620,732853,731783,2055,100945,737111,733880,737640,NA,737111,NA,Sternberg Task ,100,71163,113,yes,1024
88.59649123,88.59649123,631.6842105,631.6842105,black,experiment,legacy,legacy,legacy,0,uniform,1,undefined,1,left,113,0,113,113,0,0,113,113,0,0,113,113,113,NA,113,0,Fri Oct 23 19:50:01 2020,The main experiment item,yes,NA,SternbergTask.osexp,/Users/kaylaredder/Desktop/Tarleton /AdvancedQuant/Lab3,no,mono,no,18,no,white,no,yes,768,legacy,101,11,/Users/kaylaredder/Desktop/Tarleton /AdvancedQuant/Lab3/LR-subject-3.csv,legacy,5 7 3 6 2,Lentiform Loewenfeld,3.3.5,5,y,0,left,left,left,left,NA,849,26567,35675,849,NA,2,legacy,5,1024,2,48000,-16,experiment,3,odd,2,740962,28639,737662,738718,2002,136620,738731,731783,2055,100945,742976,739746,743826,NA,742976,NA,Sternberg Task ,101,72012,114,yes,1024
88.69565217,88.69565217,631.6869565,631.6869565,black,experiment,legacy,legacy,legacy,0,uniform,1,undefined,1,left,114,0,114,114,0,0,114,114,0,0,114,114,114,NA,114,0,Fri Oct 23 19:50:01 2020,The main experiment item,yes,NA,SternbergTask.osexp,/Users/kaylaredder/Desktop/Tarleton /AdvancedQuant/Lab3,no,mono,no,18,no,white,no,yes,768,legacy,102,11,/Users/kaylaredder/Desktop/Tarleton /AdvancedQuant/Lab3/LR-subject-3.csv,legacy,9 5 3 8 4,Lentiform Loewenfeld,3.3.5,1,y,0,left,left,left,left,NA,632,26567,35675,632,NA,2,legacy,5,1024,2,48000,-16,experiment,3,odd,9,747146,28639,743847,744902,2002,136620,744915,731783,2055,100945,749160,745930,749793,NA,749160,NA,Sternberg Task ,102,72644,115,yes,1024
87.93103448,87.93103448,630.5775862,630.5775862,black,experiment,legacy,legacy,legacy,0,uniform,0,undefined,0,right,115,0,115,115,0,0,115,115,0,0,115,115,115,NA,115,0,Fri Oct 23 19:50:01 2020,The main experiment item,yes,NA,SternbergTask.osexp,/Users/kaylaredder/Desktop/Tarleton /AdvancedQuant/Lab3,no,mono,no,18,no,white,no,yes,768,legacy,103,11,/Users/kaylaredder/Desktop/Tarleton /AdvancedQuant/Lab3/LR-subject-3.csv,legacy,6 3 1 7 9 8,Lentiform Loewenfeld,3.3.5,0,n,0,left,left,left,left,NA,503,26567,35675,503,NA,2,legacy,6,1024,2,48000,-16,experiment,3,odd,4,753114,28639,749814,750871,2002,136620,750884,731783,2055,100945,755128,751898,755632,NA,755128,NA,Sternberg Task ,102,73147,116,yes,1024
88.03418803,88.03418803,630.1282051,630.1282051,black,experiment,legacy,legacy,legacy,0,uniform,1,undefined,1,right,116,0,116,116,0,0,116,116,0,0,116,116,116,NA,116,0,Fri Oct 23 19:50:01 2020,The main experiment item,yes,NA,SternbergTask.osexp,/Users/kaylaredder/Desktop/Tarleton /AdvancedQuant/Lab3,no,mono,no,18,no,white,no,yes,768,legacy,104,11,/Users/kaylaredder/Desktop/Tarleton /AdvancedQuant/Lab3/LR-subject-3.csv,legacy,1 6 4 3 9 7,Lentiform Loewenfeld,3.3.5,0,n,0,right,left,left,right,NA,578,26567,35675,578,NA,2,legacy,6,1024,2,48000,-16,experiment,3,odd,8,758954,28639,749814,756709,2002,136620,756722,755654,2055,100945,760968,757737,761547,NA,760968,NA,Sternberg Task ,103,73725,117,yes,1024
88.13559322,88.13559322,630.9830508,630.9830508,black,experiment,legacy,legacy,legacy,0,uniform,1,undefined,1,right,117,0,117,117,0,0,117,117,0,0,117,117,117,NA,117,0,Fri Oct 23 19:50:01 2020,The main experiment item,yes,NA,SternbergTask.osexp,/Users/kaylaredder/Desktop/Tarleton /AdvancedQuant/Lab3,no,mono,no,18,no,white,no,yes,768,legacy,105,11,/Users/kaylaredder/Desktop/Tarleton /AdvancedQuant/Lab3/LR-subject-3.csv,legacy,7 9 1 6,Lentiform Loewenfeld,3.3.5,0,n,0,right,left,left,right,NA,731,26567,35675,731,NA,2,legacy,4,1024,2,48000,-16,experiment,3,odd,4,764868,28639,761569,762624,2002,136620,762637,755654,2055,100945,766882,763652,767614,NA,766882,NA,Sternberg Task ,104,74456,118,yes,1024
88.23529412,88.23529412,630.4621849,630.4621849,black,experiment,legacy,legacy,legacy,0,uniform,1,undefined,1,left,118,0,118,118,0,0,118,118,0,0,118,118,118,NA,118,0,Fri Oct 23 19:50:01 2020,The main experiment item,yes,NA,SternbergTask.osexp,/Users/kaylaredder/Desktop/Tarleton /AdvancedQuant/Lab3,no,mono,no,18,no,white,no,yes,768,legacy,106,11,/Users/kaylaredder/Desktop/Tarleton /AdvancedQuant/Lab3/LR-subject-3.csv,legacy,6 9 3 1,Lentiform Loewenfeld,3.3.5,4,y,0,left,left,left,left,NA,569,26567,35675,569,NA,2,legacy,4,1024,2,48000,-16,experiment,3,odd,1,770936,28639,767635,768692,2002,136620,768704,755654,2055,100945,772950,769719,773520,NA,772950,NA,Sternberg Task ,105,75025,119,yes,1024
88.33333333,88.33333333,630.0666667,630.0666667,black,experiment,legacy,legacy,legacy,0,uniform,1,undefined,1,left,119,0,119,119,0,0,119,119,0,0,119,119,119,NA,119,0,Fri Oct 23 19:50:01 2020,The main experiment item,yes,NA,SternbergTask.osexp,/Users/kaylaredder/Desktop/Tarleton /AdvancedQuant/Lab3,no,mono,no,18,no,white,no,yes,768,legacy,107,11,/Users/kaylaredder/Desktop/Tarleton /AdvancedQuant/Lab3/LR-subject-3.csv,legacy,2 8 5 1,Lentiform Loewenfeld,3.3.5,4,y,0,left,left,left,left,NA,583,26567,35675,583,NA,2,legacy,4,1024,2,48000,-16,experiment,3,odd,1,776842,28639,773541,774597,2002,136620,774610,755654,2055,100945,778856,775625,779440,NA,778856,NA,Sternberg Task ,106,75608,120,yes,1024
88.42975207,88.42975207,628.1818182,628.1818182,black,experiment,legacy,legacy,legacy,0,uniform,1,undefined,1,left,120,0,120,120,0,0,120,120,0,0,120,120,120,NA,120,0,Fri Oct 23 19:50:01 2020,The main experiment item,yes,NA,SternbergTask.osexp,/Users/kaylaredder/Desktop/Tarleton /AdvancedQuant/Lab3,no,mono,no,18,no,white,no,yes,768,legacy,108,11,/Users/kaylaredder/Desktop/Tarleton /AdvancedQuant/Lab3/LR-subject-3.csv,legacy,4 9 7 8 5 3,Lentiform Loewenfeld,3.3.5,4,y,0,left,left,left,left,NA,402,26567,35675,402,NA,2,legacy,6,1024,2,48000,-16,experiment,3,odd,8,782763,28639,779463,780519,2002,136620,780532,755654,2055,100945,784777,781547,785180,NA,784777,NA,Sternberg Task ,107,76010,121,yes,1024
88.52459016,88.52459016,626.1065574,626.1065574,black,experiment,legacy,legacy,legacy,0,uniform,1,undefined,1,left,121,0,121,121,0,0,121,121,0,0,121,121,121,NA,121,0,Fri Oct 23 19:50:01 2020,The main experiment item,yes,NA,SternbergTask.osexp,/Users/kaylaredder/Desktop/Tarleton /AdvancedQuant/Lab3,no,mono,no,18,no,white,no,yes,768,legacy,109,11,/Users/kaylaredder/Desktop/Tarleton /AdvancedQuant/Lab3/LR-subject-3.csv,legacy,5 2 6,Lentiform Loewenfeld,3.3.5,2,y,0,left,left,left,left,NA,375,26567,35675,375,NA,2,legacy,3,1024,2,48000,-16,experiment,3,odd,2,788502,28639,785201,786258,2002,136620,786271,755654,2055,100945,790517,787286,790893,NA,790516,NA,Sternberg Task ,108,76385,122,yes,1024
88.61788618,88.61788618,625.0243902,625.0243902,black,experiment,legacy,legacy,legacy,0,uniform,1,undefined,1,left,122,0,122,122,0,0,122,122,0,0,122,122,122,NA,122,0,Fri Oct 23 19:50:01 2020,The main experiment item,yes,NA,SternbergTask.osexp,/Users/kaylaredder/Desktop/Tarleton /AdvancedQuant/Lab3,no,mono,no,18,no,white,no,yes,768,legacy,110,11,/Users/kaylaredder/Desktop/Tarleton /AdvancedQuant/Lab3/LR-subject-3.csv,legacy,9 1 7 2,Lentiform Loewenfeld,3.3.5,2,y,0,left,left,left,left,NA,493,26567,35675,493,NA,2,legacy,4,1024,2,48000,-16,experiment,3,odd,1,794211,28639,790914,791971,2002,136620,791984,755654,2055,100945,796226,792999,796720,NA,796226,NA,Sternberg Task ,109,76878,123,yes,1024
87.90322581,87.90322581,624.8790323,624.8790323,black,experiment,legacy,legacy,legacy,0,uniform,0,undefined,0,right,123,0,123,123,0,0,123,123,0,0,123,123,123,NA,123,0,Fri Oct 23 19:50:01 2020,The main experiment item,yes,NA,SternbergTask.osexp,/Users/kaylaredder/Desktop/Tarleton /AdvancedQuant/Lab3,no,mono,no,18,no,white,no,yes,768,legacy,111,11,/Users/kaylaredder/Desktop/Tarleton /AdvancedQuant/Lab3/LR-subject-3.csv,legacy,7 1 8 4 9 3,Lentiform Loewenfeld,3.3.5,0,n,0,left,left,left,left,NA,607,26567,35675,607,NA,2,legacy,6,1024,2,48000,-16,experiment,3,odd,6,800042,28639,796742,797798,2002,136620,797811,755654,2055,100945,802056,798826,802664,NA,802056,NA,Sternberg Task ,109,77485,124,yes,1024
88,88,624.872,624.872,black,experiment,legacy,legacy,legacy,0,uniform,1,undefined,1,left,124,0,124,124,0,0,124,124,0,0,124,124,124,NA,124,0,Fri Oct 23 19:50:01 2020,The main experiment item,yes,NA,SternbergTask.osexp,/Users/kaylaredder/Desktop/Tarleton /AdvancedQuant/Lab3,no,mono,no,18,no,white,no,yes,768,legacy,112,11,/Users/kaylaredder/Desktop/Tarleton /AdvancedQuant/Lab3/LR-subject-3.csv,legacy,5 2 9 6 1 7,Lentiform Loewenfeld,3.3.5,3,y,0,left,left,left,left,NA,624,26567,35675,624,NA,2,legacy,6,1024,2,48000,-16,experiment,3,odd,9,805987,28639,796742,803742,2002,136620,803755,802686,2055,100945,808000,804770,808625,NA,808000,NA,Sternberg Task ,110,78109,125,yes,1024
88.0952381,88.0952381,623.9365079,623.9365079,black,experiment,legacy,legacy,legacy,0,uniform,1,undefined,1,right,125,0,125,125,0,0,125,125,0,0,125,125,125,NA,125,0,Fri Oct 23 19:50:01 2020,The main experiment item,yes,NA,SternbergTask.osexp,/Users/kaylaredder/Desktop/Tarleton /AdvancedQuant/Lab3,no,mono,no,18,no,white,no,yes,768,legacy,113,11,/Users/kaylaredder/Desktop/Tarleton /AdvancedQuant/Lab3/LR-subject-3.csv,legacy,1,Lentiform Loewenfeld,3.3.5,0,n,0,right,left,left,right,NA,507,26567,35675,507,NA,2,legacy,1,1024,2,48000,-16,experiment,3,odd,7,811947,28639,808648,809703,2002,136620,809716,802686,2055,100945,813961,810731,814469,NA,813961,NA,Sternberg Task ,111,78616,126,yes,1024
88.18897638,88.18897638,622.488189,622.488189,black,experiment,legacy,legacy,legacy,0,uniform,1,undefined,1,left,126,0,126,126,0,0,126,126,0,0,126,126,126,NA,126,0,Fri Oct 23 19:50:01 2020,The main experiment item,yes,NA,SternbergTask.osexp,/Users/kaylaredder/Desktop/Tarleton /AdvancedQuant/Lab3,no,mono,no,18,no,white,no,yes,768,legacy,114,11,/Users/kaylaredder/Desktop/Tarleton /AdvancedQuant/Lab3/LR-subject-3.csv,legacy,6 2,Lentiform Loewenfeld,3.3.5,1,y,0,left,left,left,left,NA,440,26567,35675,440,NA,2,legacy,2,1024,2,48000,-16,experiment,3,odd,6,817791,28639,814490,815546,2002,136620,815559,802686,2055,100945,819806,816574,820247,NA,819806,NA,Sternberg Task ,112,79056,127,yes,1024
87.5,87.5,621.8203125,621.8203125,black,experiment,legacy,legacy,legacy,0,uniform,0,undefined,0,right,127,0,127,127,0,0,127,127,0,0,127,127,127,NA,127,0,Fri Oct 23 19:50:01 2020,The main experiment item,yes,NA,SternbergTask.osexp,/Users/kaylaredder/Desktop/Tarleton /AdvancedQuant/Lab3,no,mono,no,18,no,white,no,yes,768,legacy,115,11,/Users/kaylaredder/Desktop/Tarleton /AdvancedQuant/Lab3/LR-subject-3.csv,legacy,5 7 3,Lentiform Loewenfeld,3.3.5,0,n,0,left,left,left,left,NA,537,26567,35675,537,NA,2,legacy,3,1024,2,48000,-16,experiment,3,odd,9,823567,28639,820268,821323,2002,136620,821336,802686,2055,100945,825581,822351,826119,NA,825581,NA,Sternberg Task ,112,79593,128,yes,1024
87.59689922,87.59689922,620.7674419,620.7674419,black,experiment,legacy,legacy,legacy,0,uniform,1,undefined,1,left,128,0,128,128,0,0,128,128,0,0,128,128,128,NA,128,0,Fri Oct 23 19:50:01 2020,The main experiment item,yes,NA,SternbergTask.osexp,/Users/kaylaredder/Desktop/Tarleton /AdvancedQuant/Lab3,no,mono,no,18,no,white,no,yes,768,legacy,116,11,/Users/kaylaredder/Desktop/Tarleton /AdvancedQuant/Lab3/LR-subject-3.csv,legacy,4 1 5,Lentiform Loewenfeld,3.3.5,2,y,0,left,left,left,left,NA,486,26567,35675,486,NA,2,legacy,3,1024,2,48000,-16,experiment,3,odd,1,829440,28639,820268,827196,2002,136620,827209,826140,2055,100945,831454,828223,831942,NA,831454,NA,Sternberg Task ,113,80079,129,yes,1024
87.69230769,87.69230769,619.1923077,619.1923077,black,experiment,legacy,legacy,legacy,0,uniform,1,undefined,1,left,129,0,129,129,0,0,129,129,0,0,129,129,129,NA,129,0,Fri Oct 23 19:50:01 2020,The main experiment item,yes,NA,SternbergTask.osexp,/Users/kaylaredder/Desktop/Tarleton /AdvancedQuant/Lab3,no,mono,no,18,no,white,no,yes,768,legacy,117,11,/Users/kaylaredder/Desktop/Tarleton /AdvancedQuant/Lab3/LR-subject-3.csv,legacy,2 5 4 8 7,Lentiform Loewenfeld,3.3.5,3,y,0,left,left,left,left,NA,416,26567,35675,416,NA,2,legacy,5,1024,2,48000,-16,experiment,3,odd,4,835262,28639,831962,833017,2002,136620,833030,826140,2055,100945,837276,834045,837693,NA,837276,NA,Sternberg Task ,114,80495,130,yes,1024
87.02290076,87.02290076,619.0152672,619.0152672,black,experiment,legacy,legacy,legacy,0,uniform,0,undefined,0,left,130,0,130,130,0,0,130,130,0,0,130,130,130,NA,130,0,Fri Oct 23 19:50:01 2020,The main experiment item,yes,NA,SternbergTask.osexp,/Users/kaylaredder/Desktop/Tarleton /AdvancedQuant/Lab3,no,mono,no,18,no,white,no,yes,768,legacy,118,11,/Users/kaylaredder/Desktop/Tarleton /AdvancedQuant/Lab3/LR-subject-3.csv,legacy,8 5 1 3 9,Lentiform Loewenfeld,3.3.5,4,y,0,right,left,left,right,NA,596,26567,35675,596,NA,2,legacy,5,1024,2,48000,-16,experiment,3,odd,3,841020,28639,837718,838774,2002,136620,838789,826140,2055,100945,843034,839804,843632,NA,843034,NA,Sternberg Task ,114,81091,131,yes,1024
87.12121212,87.12121212,618.7651515,618.7651515,black,experiment,legacy,legacy,legacy,0,uniform,1,undefined,1,left,131,0,131,131,0,0,131,131,0,0,131,131,131,NA,131,0,Fri Oct 23 19:50:01 2020,The main experiment item,yes,NA,SternbergTask.osexp,/Users/kaylaredder/Desktop/Tarleton /AdvancedQuant/Lab3,no,mono,no,18,no,white,no,yes,768,legacy,119,11,/Users/kaylaredder/Desktop/Tarleton /AdvancedQuant/Lab3/LR-subject-3.csv,legacy,6 5,Lentiform Loewenfeld,3.3.5,2,y,0,left,left,left,left,NA,586,26567,35675,586,NA,2,legacy,2,1024,2,48000,-16,experiment,3,odd,5,846953,28639,837718,844709,2002,136620,844722,843653,2055,100945,848968,845737,849555,NA,848967,NA,Sternberg Task ,115,81677,132,yes,1024
87.21804511,87.21804511,618.6616541,618.6616541,black,experiment,legacy,legacy,legacy,0,uniform,1,undefined,1,left,132,0,132,132,0,0,132,132,0,0,132,132,132,NA,132,0,Fri Oct 23 19:50:01 2020,The main experiment item,yes,NA,SternbergTask.osexp,/Users/kaylaredder/Desktop/Tarleton /AdvancedQuant/Lab3,no,mono,no,18,no,white,no,yes,768,legacy,120,11,/Users/kaylaredder/Desktop/Tarleton /AdvancedQuant/Lab3/LR-subject-3.csv,legacy,2 4 6 9,Lentiform Loewenfeld,3.3.5,3,y,0,left,left,left,left,NA,605,26567,35675,605,NA,2,legacy,4,1024,2,48000,-16,experiment,3,odd,6,852878,28639,849577,850633,2002,136620,850646,843653,2055,100945,854892,851661,855498,NA,854892,NA,Sternberg Task ,116,82282,133,yes,1024
87.31343284,87.31343284,617.641791,617.641791,black,experiment,legacy,legacy,legacy,0,uniform,1,undefined,1,left,133,0,133,133,0,0,133,133,0,0,133,133,133,NA,133,0,Fri Oct 23 19:50:01 2020,The main experiment item,yes,NA,SternbergTask.osexp,/Users/kaylaredder/Desktop/Tarleton /AdvancedQuant/Lab3,no,mono,no,18,no,white,no,yes,768,legacy,121,11,/Users/kaylaredder/Desktop/Tarleton /AdvancedQuant/Lab3/LR-subject-3.csv,legacy,6 8 9 3 4 9,Lentiform Loewenfeld,3.3.5,5,y,0,left,left,left,left,NA,482,26567,35675,482,NA,2,legacy,6,1024,2,48000,-16,experiment,3,odd,4,858820,28639,855518,856574,2002,136620,856588,843653,2055,100945,860834,857603,861317,NA,860834,NA,Sternberg Task ,117,82764,134,yes,1024
87.40740741,87.40740741,617.5111111,617.5111111,black,experiment,legacy,legacy,legacy,0,uniform,1,undefined,1,right,134,0,134,134,0,0,134,134,0,0,134,134,134,NA,134,0,Fri Oct 23 19:50:01 2020,The main experiment item,yes,NA,SternbergTask.osexp,/Users/kaylaredder/Desktop/Tarleton /AdvancedQuant/Lab3,no,mono,no,18,no,white,no,yes,768,legacy,122,11,/Users/kaylaredder/Desktop/Tarleton /AdvancedQuant/Lab3/LR-subject-3.csv,legacy,2 8 9,Lentiform Loewenfeld,3.3.5,0,n,0,right,left,left,right,NA,600,26567,35675,600,NA,2,legacy,3,1024,2,48000,-16,experiment,3,odd,6,864638,28639,861338,862394,2002,136620,862406,843653,2055,100945,866652,863422,867253,NA,866652,NA,Sternberg Task ,118,83364,135,yes,1024
87.5,87.5,619.0073529,619.0073529,black,experiment,legacy,legacy,legacy,0,uniform,1,undefined,1,right,135,0,135,135,0,0,135,135,0,0,135,135,135,NA,135,0,Fri Oct 23 19:50:01 2020,The main experiment item,yes,NA,SternbergTask.osexp,/Users/kaylaredder/Desktop/Tarleton /AdvancedQuant/Lab3,no,mono,no,18,no,white,no,yes,768,legacy,123,11,/Users/kaylaredder/Desktop/Tarleton /AdvancedQuant/Lab3/LR-subject-3.csv,legacy,6 2 9 3 8 4,Lentiform Loewenfeld,3.3.5,0,n,0,right,left,left,right,NA,821,26567,35675,821,NA,2,legacy,6,1024,2,48000,-16,experiment,3,odd,1,870575,28639,867275,868331,2002,136620,868344,843653,2055,100945,872589,869359,873411,NA,872589,NA,Sternberg Task ,119,84185,136,yes,1024
86.86131387,86.86131387,618.6058394,618.6058394,black,experiment,legacy,legacy,legacy,0,uniform,0,undefined,0,left,136,0,136,136,0,0,136,136,0,0,136,136,136,NA,136,0,Fri Oct 23 19:50:01 2020,The main experiment item,yes,NA,SternbergTask.osexp,/Users/kaylaredder/Desktop/Tarleton /AdvancedQuant/Lab3,no,mono,no,18,no,white,no,yes,768,legacy,124,11,/Users/kaylaredder/Desktop/Tarleton /AdvancedQuant/Lab3/LR-subject-3.csv,legacy,8 1 6,Lentiform Loewenfeld,3.3.5,3,y,0,right,left,left,right,NA,564,26567,35675,564,NA,2,legacy,3,1024,2,48000,-16,experiment,3,odd,6,876733,28639,873434,874489,2002,136620,874502,843653,2055,100945,878747,875517,879312,NA,878747,NA,Sternberg Task ,119,84749,137,yes,1024
86.95652174,86.95652174,618.4130435,618.4130435,black,experiment,legacy,legacy,legacy,0,uniform,1,undefined,1,left,137,0,137,137,0,0,137,137,0,0,137,137,137,NA,137,0,Fri Oct 23 19:50:01 2020,The main experiment item,yes,NA,SternbergTask.osexp,/Users/kaylaredder/Desktop/Tarleton /AdvancedQuant/Lab3,no,mono,no,18,no,white,no,yes,768,legacy,125,11,/Users/kaylaredder/Desktop/Tarleton /AdvancedQuant/Lab3/LR-subject-3.csv,legacy,8 9 5 7 1 6,Lentiform Loewenfeld,3.3.5,4,y,0,left,left,left,left,NA,592,26567,35675,592,NA,2,legacy,6,1024,2,48000,-16,experiment,3,odd,7,882633,28639,873434,880389,2002,136620,880402,879333,2055,100945,884647,881417,885240,NA,884647,NA,Sternberg Task ,120,85341,138,yes,1024