"acc","accuracy","average_response_time","avg_rt","background","block","canvas_backend","clock_backend","color_backend","compensation","coordinates","correct","correct_instuction1","correct_keyboard_response","correct_response","count_ISI","count_correctFeedback","count_expSequence","count_experiment","count_experimentLoop","count_fixation","count_getting_started","count_incorrectFeedback","count_instruction2","count_instuction1","count_keyboard_response","count_logger","count_memorySet","count_practiceLoop","count_prode","count_thankYou","count_welcome","datetime","description","disable_garbage_collection","experiment_file","experiment_path","font_bold","font_family","font_italic","font_size","font_underline","foreground","form_clicks","fullscreen","height","keyboard_backend","live_row","live_row_practiceLoop","logfile","mouse_backend","numberSet","opensesame_codename","opensesame_version","posInSet","present","repeat_cycle","response","response_instruction2","response_instuction1","response_keyboard_response","response_thankYou","response_time","response_time_instruction2","response_time_instuction1","response_time_keyboard_response","response_time_thankYou","response_time_welcome","response_welcome","round_decimals","sampler_backend","setSize","sound_buf_size","sound_channels","sound_freq","sound_sample_size","start","subject_nr","subject_parity","target","time_ISI","time_correctFeedback","time_expSequence","time_experiment","time_experimentLoop","time_fixation","time_getting_started","time_incorrectFeedback","time_instruction2","time_instuction1","time_keyboard_response","time_logger","time_memorySet","time_practiceLoop","time_prode","time_thankYou","time_welcome","title","total_correct","total_response_time","total_responses","uniform_coordinates","width"
"100","100","1254","1254","black","practice","legacy","legacy","legacy","0","uniform","1","undefined","1","left","0","0","0","0","0","0","NA","0","0","0","0","0","0","0","0","0","NA","Sun Oct 25 13:46:23 2020","The main experiment item","yes","SternbergTask.osexp","/Users/Arianna/Desktop","no","mono","no","18","no","white","no","yes","768","legacy","0","0","/Users/Arianna/Downloads/AG-subject-3.csv","legacy","1 5 2 9","Lentiform Loewenfeld","3.3.3","2","y","0","left","NA","right","left","NA","1254","NA","44867","1254","NA","NA","NA","2","legacy","4","1024","2","48000","-16","experiment","3","odd","5","51153","NA","48895","3621","NA","48918","NA","NA","NA","3636","53167","54422","49933","48529","53167","NA","NA","Sternberg Task","1","1254","1","yes","1024"
"100","100","1157","1157","black","practice","legacy","legacy","legacy","0","uniform","1","undefined","1","left","1","1","1","0","0","1","NA","1","0","0","1","1","1","0","1","0","NA","Sun Oct 25 13:46:23 2020","The main experiment item","yes","SternbergTask.osexp","/Users/Arianna/Desktop","no","mono","no","18","no","white","no","yes","768","legacy","1","1","/Users/Arianna/Downloads/AG-subject-3.csv","legacy","4 3 1 7 9 8","Lentiform Loewenfeld","3.3.3","1","y","0","left","NA","right","left","NA","1060","NA","44867","1060","NA","NA","NA","2","legacy","6","1024","2","48000","-16","experiment","3","odd","4","57854","54484","55601","3621","NA","55617","NA","NA","NA","3636","59868","60929","56633","48529","59868","NA","NA","Sternberg Task","2","2314","2","yes","1024"
"100","100","1010","1010","black","practice","legacy","legacy","legacy","0","uniform","1","undefined","1","right","2","2","2","0","0","2","NA","2","0","0","2","2","2","0","2","0","NA","Sun Oct 25 13:46:23 2020","The main experiment item","yes","SternbergTask.osexp","/Users/Arianna/Desktop","no","mono","no","18","no","white","no","yes","768","legacy","2","2","/Users/Arianna/Downloads/AG-subject-3.csv","legacy","4 1 5","Lentiform Loewenfeld","3.3.3","0","n","0","right","NA","right","right","NA","716","NA","44867","716","NA","NA","NA","2","legacy","3","1024","2","48000","-16","experiment","3","odd","2","64296","60956","62044","3621","NA","62058","NA","NA","NA","3636","66311","67028","63077","48529","66311","NA","NA","Sternberg Task","3","3030","3","yes","1024"
"100","100","895","895","black","practice","legacy","legacy","legacy","0","uniform","1","undefined","1","right","3","3","3","0","0","3","NA","3","0","0","3","3","3","0","3","0","NA","Sun Oct 25 13:46:23 2020","The main experiment item","yes","SternbergTask.osexp","/Users/Arianna/Desktop","no","mono","no","18","no","white","no","yes","768","legacy","3","3","/Users/Arianna/Downloads/AG-subject-3.csv","legacy","2 1","Lentiform Loewenfeld","3.3.3","0","n","0","right","NA","right","right","NA","550","NA","44867","550","NA","NA","NA","2","legacy","2","1024","2","48000","-16","experiment","3","odd","5","70394","67057","68147","3621","NA","68161","NA","NA","NA","3636","72409","72960","69178","48529","72409","NA","NA","Sternberg Task","4","3580","4","yes","1024"
"100","100","903.6","903.6","black","practice","legacy","legacy","legacy","0","uniform","1","undefined","1","left","4","4","4","0","0","4","NA","4","0","0","4","4","4","0","4","0","NA","Sun Oct 25 13:46:23 2020","The main experiment item","yes","SternbergTask.osexp","/Users/Arianna/Desktop","no","mono","no","18","no","white","no","yes","768","legacy","4","4","/Users/Arianna/Downloads/AG-subject-3.csv","legacy","1 7 9 8 5","Lentiform Loewenfeld","3.3.3","4","y","0","left","NA","right","left","NA","938","NA","44867","938","NA","NA","NA","2","legacy","5","1024","2","48000","-16","experiment","3","odd","8","76310","72975","74062","3621","NA","74077","NA","NA","NA","3636","78325","79264","75092","48529","78325","NA","NA","Sternberg Task","5","4518","5","yes","1024"
"100","100","857.3333333333334","857.3333333333334","black","practice","legacy","legacy","legacy","0","uniform","1","undefined","1","left","5","5","5","0","0","5","NA","5","0","0","5","5","5","0","5","0","NA","Sun Oct 25 13:46:23 2020","The main experiment item","yes","SternbergTask.osexp","/Users/Arianna/Desktop","no","mono","no","18","no","white","no","yes","768","legacy","5","5","/Users/Arianna/Downloads/AG-subject-3.csv","legacy","4 8","Lentiform Loewenfeld","3.3.3","1","y","0","left","NA","right","left","NA","626","NA","44867","626","NA","NA","NA","2","legacy","2","1024","2","48000","-16","experiment","3","odd","4","82616","79287","80372","3621","NA","80384","NA","NA","NA","3636","84630","85257","81399","48529","84629","NA","NA","Sternberg Task","6","5144","6","yes","1024"
"100","100","913.7142857142857","913.7142857142857","black","practice","legacy","legacy","legacy","0","uniform","1","undefined","1","right","6","6","6","0","0","6","NA","6","0","0","6","6","6","0","6","0","NA","Sun Oct 25 13:46:23 2020","The main experiment item","yes","SternbergTask.osexp","/Users/Arianna/Desktop","no","mono","no","18","no","white","no","yes","768","legacy","6","6","/Users/Arianna/Downloads/AG-subject-3.csv","legacy","9 6 7 4 5","Lentiform Loewenfeld","3.3.3","0","n","0","right","NA","right","right","NA","1252","NA","44867","1252","NA","NA","NA","2","legacy","5","1024","2","48000","-16","experiment","3","odd","3","88601","85272","86356","3621","NA","86369","NA","NA","NA","3636","90615","91868","87384","48529","90615","NA","NA","Sternberg Task","7","6396","7","yes","1024"
"100","100","905.75","905.75","black","practice","legacy","legacy","legacy","0","uniform","1","undefined","1","left","7","7","7","0","0","7","NA","7","0","0","7","7","7","0","7","0","NA","Sun Oct 25 13:46:23 2020","The main experiment item","yes","SternbergTask.osexp","/Users/Arianna/Desktop","no","mono","no","18","no","white","no","yes","768","legacy","7","7","/Users/Arianna/Downloads/AG-subject-3.csv","legacy","6","Lentiform Loewenfeld","3.3.3","1","y","0","left","NA","right","left","NA","850","NA","44867","850","NA","NA","NA","2","legacy","1","1024","2","48000","-16","experiment","3","odd","6","95227","91895","92980","3621","NA","92993","NA","NA","NA","3636","97241","98092","94009","48529","97240","NA","NA","Sternberg Task","8","7246","8","yes","1024"
"100","100","947.6666666666666","947.6666666666666","black","practice","legacy","legacy","legacy","0","uniform","1","undefined","1","right","8","8","8","0","0","8","NA","8","0","0","8","8","8","0","8","0","NA","Sun Oct 25 13:46:23 2020","The main experiment item","yes","SternbergTask.osexp","/Users/Arianna/Desktop","no","mono","no","18","no","white","no","yes","768","legacy","8","8","/Users/Arianna/Downloads/AG-subject-3.csv","legacy","3 1 9 4","Lentiform Loewenfeld","3.3.3","0","n","0","right","NA","right","right","NA","1283","NA","44867","1283","NA","NA","NA","2","legacy","4","1024","2","48000","-16","experiment","3","odd","6","101445","98115","99200","3621","NA","99213","NA","NA","NA","3636","103459","104743","100228","48529","103459","NA","NA","Sternberg Task","9","8529","9","yes","1024"
"100","100","967.5","967.5","black","practice","legacy","legacy","legacy","0","uniform","1","undefined","1","right","9","9","9","0","0","9","NA","9","0","0","9","9","9","0","9","0","NA","Sun Oct 25 13:46:23 2020","The main experiment item","yes","SternbergTask.osexp","/Users/Arianna/Desktop","no","mono","no","18","no","white","no","yes","768","legacy","9","9","/Users/Arianna/Downloads/AG-subject-3.csv","legacy","5 7 8 4 1 2","Lentiform Loewenfeld","3.3.3","0","n","0","right","NA","right","right","NA","1146","NA","44867","1146","NA","NA","NA","2","legacy","6","1024","2","48000","-16","experiment","3","odd","6","108100","104768","105854","3621","NA","105867","NA","NA","NA","3636","110114","111261","106883","48529","110114","NA","NA","Sternberg Task","10","9675","10","yes","1024"
"100","100","951.4545454545455","951.4545454545455","black","practice","legacy","legacy","legacy","0","uniform","1","undefined","1","left","10","10","10","0","0","10","NA","10","0","0","10","10","10","0","10","0","NA","Sun Oct 25 13:46:23 2020","The main experiment item","yes","SternbergTask.osexp","/Users/Arianna/Desktop","no","mono","no","18","no","white","no","yes","768","legacy","10","10","/Users/Arianna/Downloads/AG-subject-3.csv","legacy","2 9 4","Lentiform Loewenfeld","3.3.3","3","y","0","left","NA","right","left","NA","791","NA","44867","791","NA","NA","NA","2","legacy","3","1024","2","48000","-16","experiment","3","odd","4","114621","111288","112377","3621","NA","112389","NA","NA","NA","3636","116636","117428","113404","48529","116636","NA","NA","Sternberg Task","11","10466","11","yes","1024"
"100","100","923.75","923.75","black","practice","legacy","legacy","legacy","0","uniform","1","undefined","1","right","11","11","11","0","0","11","NA","11","0","0","11","11","11","0","11","0","NA","Sun Oct 25 13:46:23 2020","The main experiment item","yes","SternbergTask.osexp","/Users/Arianna/Desktop","no","mono","no","18","no","white","no","yes","768","legacy","11","11","/Users/Arianna/Downloads/AG-subject-3.csv","legacy","5","Lentiform Loewenfeld","3.3.3","0","n","0","right","NA","right","right","NA","619","NA","44867","619","NA","NA","NA","2","legacy","1","1024","2","48000","-16","experiment","3","odd","3","120780","117452","118537","3621","NA","118550","NA","NA","NA","3636","122794","123414","119563","48529","122793","NA","NA","Sternberg Task","12","11085","12","yes","1024"
"100","100","919","919","black","experiment","legacy","legacy","legacy","0","uniform","1","undefined","1","left","12","12","12","0","0","12","NA","12","0","0","12","12","12","0","12","0","NA","Sun Oct 25 13:46:23 2020","The main experiment item","yes","SternbergTask.osexp","/Users/Arianna/Desktop","no","mono","no","18","no","white","no","yes","768","legacy","0","11","/Users/Arianna/Downloads/AG-subject-3.csv","legacy","6 9 7 4 5 1","Lentiform Loewenfeld","3.3.3","2","y","0","left","right","right","left","NA","862","32001","44867","862","NA","NA","NA","2","legacy","6","1024","2","48000","-16","experiment","3","odd","9","158830","123441","156585","3621","156499","156598","NA","NA","124497","3636","160843","161706","157613","48529","160843","NA","NA","Sternberg Task","13","11947","13","yes","1024"
"100","100","896.3571428571429","896.3571428571429","black","experiment","legacy","legacy","legacy","0","uniform","1","undefined","1","left","13","13","13","0","0","13","NA","13","0","0","13","13","13","0","13","0","NA","Sun Oct 25 13:46:23 2020","The main experiment item","yes","SternbergTask.osexp","/Users/Arianna/Desktop","no","mono","no","18","no","white","no","yes","768","legacy","1","11","/Users/Arianna/Downloads/AG-subject-3.csv","legacy","3 4","Lentiform Loewenfeld","3.3.3","1","y","0","left","right","right","left","NA","602","32001","44867","602","NA","NA","NA","2","legacy","2","1024","2","48000","-16","experiment","3","odd","3","165070","161731","162825","3621","156499","162837","NA","NA","124497","3636","167086","167689","163852","48529","167086","NA","NA","Sternberg Task","14","12549","14","yes","1024"
"100","100","891.2666666666667","891.2666666666667","black","experiment","legacy","legacy","legacy","0","uniform","1","undefined","1","right","14","14","14","0","0","14","NA","14","0","0","14","14","14","0","14","0","NA","Sun Oct 25 13:46:23 2020","The main experiment item","yes","SternbergTask.osexp","/Users/Arianna/Desktop","no","mono","no","18","no","white","no","yes","768","legacy","2","11","/Users/Arianna/Downloads/AG-subject-3.csv","legacy","6 9 4 5 2","Lentiform Loewenfeld","3.3.3","0","n","0","right","right","right","right","NA","820","32001","44867","820","NA","NA","NA","2","legacy","5","1024","2","48000","-16","experiment","3","odd","1","171044","167715","168800","3621","156499","168813","NA","NA","124497","3636","173059","173881","169828","48529","173058","NA","NA","Sternberg Task","15","13369","15","yes","1024"
"100","100","874.75","874.75","black","experiment","legacy","legacy","legacy","0","uniform","1","undefined","1","right","15","15","15","0","0","15","NA","15","0","0","15","15","15","0","15","0","NA","Sun Oct 25 13:46:23 2020","The main experiment item","yes","SternbergTask.osexp","/Users/Arianna/Desktop","no","mono","no","18","no","white","no","yes","768","legacy","3","11","/Users/Arianna/Downloads/AG-subject-3.csv","legacy","4 1","Lentiform Loewenfeld","3.3.3","0","n","0","right","right","right","right","NA","627","32001","44867","627","NA","NA","NA","2","legacy","2","1024","2","48000","-16","experiment","3","odd","6","177234","173907","174991","3621","156499","175003","NA","NA","124497","3636","179248","179877","176016","48529","179248","NA","NA","Sternberg Task","16","13996","16","yes","1024"
"100","100","875.2352941176471","875.2352941176471","black","experiment","legacy","legacy","legacy","0","uniform","1","undefined","1","left","16","16","16","0","0","16","NA","16","0","0","16","16","16","0","16","0","NA","Sun Oct 25 13:46:23 2020","The main experiment item","yes","SternbergTask.osexp","/Users/Arianna/Desktop","no","mono","no","18","no","white","no","yes","768","legacy","4","11","/Users/Arianna/Downloads/AG-subject-3.csv","legacy","9 8 4","Lentiform Loewenfeld","3.3.3","1","y","0","left","right","right","left","NA","883","32001","44867","883","NA","NA","NA","2","legacy","3","1024","2","48000","-16","experiment","3","odd","9","183232","179901","180986","3621","156499","181000","NA","NA","124497","3636","185246","186131","182014","48529","185245","NA","NA","Sternberg Task","17","14879","17","yes","1024"
"100","100","873.4444444444445","873.4444444444445","black","experiment","legacy","legacy","legacy","0","uniform","1","undefined","1","left","17","17","17","0","0","17","NA","17","0","0","17","17","17","0","17","0","NA","Sun Oct 25 13:46:23 2020","The main experiment item","yes","SternbergTask.osexp","/Users/Arianna/Desktop","no","mono","no","18","no","white","no","yes","768","legacy","5","11","/Users/Arianna/Downloads/AG-subject-3.csv","legacy","7 6","Lentiform Loewenfeld","3.3.3","2","y","0","left","right","right","left","NA","843","32001","44867","843","NA","NA","NA","2","legacy","2","1024","2","48000","-16","experiment","3","odd","6","189501","186162","187253","3621","156499","187268","NA","NA","124497","3636","191515","192359","188283","48529","191515","NA","NA","Sternberg Task","18","15722","18","yes","1024"
"100","100","858.3684210526316","858.3684210526316","black","experiment","legacy","legacy","legacy","0","uniform","1","undefined","1","left","18","18","18","0","0","18","NA","18","0","0","18","18","18","0","18","0","NA","Sun Oct 25 13:46:23 2020","The main experiment item","yes","SternbergTask.osexp","/Users/Arianna/Desktop","no","mono","no","18","no","white","no","yes","768","legacy","6","11","/Users/Arianna/Downloads/AG-subject-3.csv","legacy","9 4 2","Lentiform Loewenfeld","3.3.3","1","y","0","left","right","right","left","NA","587","32001","44867","587","NA","NA","NA","2","legacy","3","1024","2","48000","-16","experiment","3","odd","9","195712","192382","193467","3621","156499","193480","NA","NA","124497","3636","197726","198314","194495","48529","197725","NA","NA","Sternberg Task","19","16309","19","yes","1024"
"100","100","859.05","859.05","black","experiment","legacy","legacy","legacy","0","uniform","1","undefined","1","left","19","19","19","0","0","19","NA","19","0","0","19","19","19","0","19","0","NA","Sun Oct 25 13:46:23 2020","The main experiment item","yes","SternbergTask.osexp","/Users/Arianna/Desktop","no","mono","no","18","no","white","no","yes","768","legacy","7","11","/Users/Arianna/Downloads/AG-subject-3.csv","legacy","8 9 5 7 1 6","Lentiform Loewenfeld","3.3.3","4","y","0","left","right","right","left","NA","872","32001","44867","872","NA","NA","NA","2","legacy","6","1024","2","48000","-16","experiment","3","odd","7","201672","198339","199428","3621","156499","199440","NA","NA","124497","3636","203687","204560","200456","48529","203687","NA","NA","Sternberg Task","20","17181","20","yes","1024"
"100","100","853.9047619047619","853.9047619047619","black","experiment","legacy","legacy","legacy","0","uniform","1","undefined","1","left","20","20","20","0","0","20","NA","20","0","0","20","20","20","0","20","0","NA","Sun Oct 25 13:46:23 2020","The main experiment item","yes","SternbergTask.osexp","/Users/Arianna/Desktop","no","mono","no","18","no","white","no","yes","768","legacy","8","11","/Users/Arianna/Downloads/AG-subject-3.csv","legacy","2 5 4 8 7","Lentiform Loewenfeld","3.3.3","3","y","0","left","right","right","left","NA","751","32001","44867","751","NA","NA","NA","2","legacy","5","1024","2","48000","-16","experiment","3","odd","4","207916","204586","205671","3621","156499","205684","NA","NA","124497","3636","209930","210682","206699","48529","209929","NA","NA","Sternberg Task","21","17932","21","yes","1024"
"100","100","851.0909090909091","851.0909090909091","black","experiment","legacy","legacy","legacy","0","uniform","1","undefined","1","right","21","21","21","0","0","21","NA","21","0","0","21","21","21","0","21","0","NA","Sun Oct 25 13:46:23 2020","The main experiment item","yes","SternbergTask.osexp","/Users/Arianna/Desktop","no","mono","no","18","no","white","no","yes","768","legacy","9","11","/Users/Arianna/Downloads/AG-subject-3.csv","legacy","2 8 7 9 5 3","Lentiform Loewenfeld","3.3.3","0","n","0","right","right","right","right","NA","792","32001","44867","792","NA","NA","NA","2","legacy","6","1024","2","48000","-16","experiment","3","odd","6","214034","210702","211789","3621","156499","211801","NA","NA","124497","3636","216049","216842","212817","48529","216049","NA","NA","Sternberg Task","22","18724","22","yes","1024"
"100","100","848.6521739130435","848.6521739130435","black","experiment","legacy","legacy","legacy","0","uniform","1","undefined","1","right","22","22","22","0","0","22","NA","22","0","0","22","22","22","0","22","0","NA","Sun Oct 25 13:46:23 2020","The main experiment item","yes","SternbergTask.osexp","/Users/Arianna/Desktop","no","mono","no","18","no","white","no","yes","768","legacy","10","11","/Users/Arianna/Downloads/AG-subject-3.csv","legacy","8 4 3 9","Lentiform Loewenfeld","3.3.3","0","n","0","right","right","right","right","NA","795","32001","44867","795","NA","NA","NA","2","legacy","4","1024","2","48000","-16","experiment","3","odd","5","220199","216868","217953","3621","156499","217966","NA","NA","124497","3636","222213","223009","218982","48529","222213","NA","NA","Sternberg Task","23","19519","23","yes","1024"
"100","100","854.5416666666666","854.5416666666666","black","experiment","legacy","legacy","legacy","0","uniform","1","undefined","1","left","23","23","23","0","0","23","NA","23","0","0","23","23","23","0","23","0","NA","Sun Oct 25 13:46:23 2020","The main experiment item","yes","SternbergTask.osexp","/Users/Arianna/Desktop","no","mono","no","18","no","white","no","yes","768","legacy","11","11","/Users/Arianna/Downloads/AG-subject-3.csv","legacy","9 1 7 2","Lentiform Loewenfeld","3.3.3","2","y","0","left","right","right","left","NA","990","32001","44867","990","NA","NA","NA","2","legacy","4","1024","2","48000","-16","experiment","3","odd","1","226368","223036","224123","3621","156499","224136","NA","NA","124497","3636","228382","229373","225151","48529","228382","NA","NA","Sternberg Task","24","20509","24","yes","1024"
"100","100","845.8","845.8","black","experiment","legacy","legacy","legacy","0","uniform","1","undefined","1","left","24","24","24","0","0","24","NA","24","0","0","24","24","24","0","24","0","NA","Sun Oct 25 13:46:23 2020","The main experiment item","yes","SternbergTask.osexp","/Users/Arianna/Desktop","no","mono","no","18","no","white","no","yes","768","legacy","12","11","/Users/Arianna/Downloads/AG-subject-3.csv","legacy","3 5 4 7","Lentiform Loewenfeld","3.3.3","1","y","0","left","right","right","left","NA","636","32001","44867","636","NA","NA","NA","2","legacy","4","1024","2","48000","-16","experiment","3","odd","3","232733","229400","230485","3621","156499","230499","NA","NA","124497","3636","234747","235384","231514","48529","234747","NA","NA","Sternberg Task","25","21145","25","yes","1024"
"100","100","864.1538461538462","864.1538461538462","black","experiment","legacy","legacy","legacy","0","uniform","1","undefined","1","right","25","25","25","0","0","25","NA","25","0","0","25","25","25","0","25","0","NA","Sun Oct 25 13:46:23 2020","The main experiment item","yes","SternbergTask.osexp","/Users/Arianna/Desktop","no","mono","no","18","no","white","no","yes","768","legacy","13","11","/Users/Arianna/Downloads/AG-subject-3.csv","legacy","8 5 4 2 9 6","Lentiform Loewenfeld","3.3.3","0","n","0","right","right","right","right","NA","1323","32001","44867","1323","NA","NA","NA","2","legacy","6","1024","2","48000","-16","experiment","3","odd","3","238726","235398","236485","3621","156499","236498","NA","NA","124497","3636","240740","242064","237513","48529","240740","NA","NA","Sternberg Task","26","22468","26","yes","1024"
"100","100","874.7407407407408","874.7407407407408","black","experiment","legacy","legacy","legacy","0","uniform","1","undefined","1","left","26","26","26","0","0","26","NA","26","0","0","26","26","26","0","26","0","NA","Sun Oct 25 13:46:23 2020","The main experiment item","yes","SternbergTask.osexp","/Users/Arianna/Desktop","no","mono","no","18","no","white","no","yes","768","legacy","14","11","/Users/Arianna/Downloads/AG-subject-3.csv","legacy","7 8 6 3 1","Lentiform Loewenfeld","3.3.3","5","y","0","left","right","right","left","NA","1150","32001","44867","1150","NA","NA","NA","2","legacy","5","1024","2","48000","-16","experiment","3","odd","1","245414","242080","243167","3621","156499","243180","NA","NA","124497","3636","247428","248580","244197","48529","247427","NA","NA","Sternberg Task","27","23618","27","yes","1024"
"100","100","874","874","black","experiment","legacy","legacy","legacy","0","uniform","1","undefined","1","left","27","27","27","0","0","27","NA","27","0","0","27","27","27","0","27","0","NA","Sun Oct 25 13:46:23 2020","The main experiment item","yes","SternbergTask.osexp","/Users/Arianna/Desktop","no","mono","no","18","no","white","no","yes","768","legacy","15","11","/Users/Arianna/Downloads/AG-subject-3.csv","legacy","4 1 5","Lentiform Loewenfeld","3.3.3","2","y","0","left","right","right","left","NA","854","32001","44867","854","NA","NA","NA","2","legacy","3","1024","2","48000","-16","experiment","3","odd","1","251942","248606","249696","3621","156499","249709","NA","NA","124497","3636","253958","254814","250725","48529","253958","NA","NA","Sternberg Task","28","24472","28","yes","1024"
"100","100","868.8275862068965","868.8275862068965","black","experiment","legacy","legacy","legacy","0","uniform","1","undefined","1","right","28","28","28","0","0","28","NA","28","0","0","28","28","28","0","28","0","NA","Sun Oct 25 13:46:23 2020","The main experiment item","yes","SternbergTask.osexp","/Users/Arianna/Desktop","no","mono","no","18","no","white","no","yes","768","legacy","16","11","/Users/Arianna/Downloads/AG-subject-3.csv","legacy","2 8 9 4 1","Lentiform Loewenfeld","3.3.3","0","n","0","right","right","right","right","NA","724","32001","44867","724","NA","NA","NA","2","legacy","5","1024","2","48000","-16","experiment","3","odd","5","258172","254841","255926","3621","156499","255939","NA","NA","124497","3636","260186","260911","256954","48529","260186","NA","NA","Sternberg Task","29","25196","29","yes","1024"
"100","100","867.4666666666667","867.4666666666667","black","experiment","legacy","legacy","legacy","0","uniform","1","undefined","1","right","29","29","29","0","0","29","NA","29","0","0","29","29","29","0","29","0","NA","Sun Oct 25 13:46:23 2020","The main experiment item","yes","SternbergTask.osexp","/Users/Arianna/Desktop","no","mono","no","18","no","white","no","yes","768","legacy","17","11","/Users/Arianna/Downloads/AG-subject-3.csv","legacy","6 9 4 5 3 2","Lentiform Loewenfeld","3.3.3","0","n","0","right","right","right","right","NA","828","32001","44867","828","NA","NA","NA","2","legacy","6","1024","2","48000","-16","experiment","3","odd","8","264268","260938","262022","3621","156499","262035","NA","NA","124497","3636","266282","267111","263051","48529","266282","NA","NA","Sternberg Task","30","26024","30","yes","1024"
"100","100","863.0967741935484","863.0967741935484","black","experiment","legacy","legacy","legacy","0","uniform","1","undefined","1","right","30","30","30","0","0","30","NA","30","0","0","30","30","30","0","30","0","NA","Sun Oct 25 13:46:23 2020","The main experiment item","yes","SternbergTask.osexp","/Users/Arianna/Desktop","no","mono","no","18","no","white","no","yes","768","legacy","18","11","/Users/Arianna/Downloads/AG-subject-3.csv","legacy","1 7 8 3 9","Lentiform Loewenfeld","3.3.3","0","n","0","right","right","right","right","NA","732","32001","44867","732","NA","NA","NA","2","legacy","5","1024","2","48000","-16","experiment","3","odd","2","270465","267134","268224","3621","156499","268236","NA","NA","124497","3636","272479","273212","269252","48529","272479","NA","NA","Sternberg Task","31","26756","31","yes","1024"
"100","100","865.1875","865.1875","black","experiment","legacy","legacy","legacy","0","uniform","1","undefined","1","right","31","31","31","0","0","31","NA","31","0","0","31","31","31","0","31","0","NA","Sun Oct 25 13:46:23 2020","The main experiment item","yes","SternbergTask.osexp","/Users/Arianna/Desktop","no","mono","no","18","no","white","no","yes","768","legacy","19","11","/Users/Arianna/Downloads/AG-subject-3.csv","legacy","1 7 5 2","Lentiform Loewenfeld","3.3.3","0","n","0","right","right","right","right","NA","930","32001","44867","930","NA","NA","NA","2","legacy","4","1024","2","48000","-16","experiment","3","odd","3","276570","273235","274325","3621","156499","274337","NA","NA","124497","3636","278584","279515","275353","48529","278584","NA","NA","Sternberg Task","32","27686","32","yes","1024"
"100","100","859.1515151515151","859.1515151515151","black","experiment","legacy","legacy","legacy","0","uniform","1","undefined","1","right","32","32","32","0","0","32","NA","32","0","0","32","32","32","0","32","0","NA","Sun Oct 25 13:46:23 2020","The main experiment item","yes","SternbergTask.osexp","/Users/Arianna/Desktop","no","mono","no","18","no","white","no","yes","768","legacy","20","11","/Users/Arianna/Downloads/AG-subject-3.csv","legacy","8 4 3 5","Lentiform Loewenfeld","3.3.3","0","n","0","right","right","right","right","NA","666","32001","44867","666","NA","NA","NA","2","legacy","4","1024","2","48000","-16","experiment","3","odd","6","282871","279542","280626","3621","156499","280639","NA","NA","124497","3636","284885","285552","281654","48529","284885","NA","NA","Sternberg Task","33","28352","33","yes","1024"
"100","100","858.4117647058823","858.4117647058823","black","experiment","legacy","legacy","legacy","0","uniform","1","undefined","1","left","33","33","33","0","0","33","NA","33","0","0","33","33","33","0","33","0","NA","Sun Oct 25 13:46:23 2020","The main experiment item","yes","SternbergTask.osexp","/Users/Arianna/Desktop","no","mono","no","18","no","white","no","yes","768","legacy","21","11","/Users/Arianna/Downloads/AG-subject-3.csv","legacy","8","Lentiform Loewenfeld","3.3.3","1","y","0","left","right","right","left","NA","834","32001","44867","834","NA","NA","NA","2","legacy","1","1024","2","48000","-16","experiment","3","odd","8","288897","285567","286651","3621","156499","286664","NA","NA","124497","3636","290911","291747","287679","48529","290911","NA","NA","Sternberg Task","34","29186","34","yes","1024"
"97.14285714285714","97.14285714285714","854.0571428571428","854.0571428571428","black","experiment","legacy","legacy","legacy","0","uniform","0","undefined","0","left","34","34","34","0","0","34","NA","34","0","0","34","34","34","0","34","0","NA","Sun Oct 25 13:46:23 2020","The main experiment item","yes","SternbergTask.osexp","/Users/Arianna/Desktop","no","mono","no","18","no","white","no","yes","768","legacy","22","11","/Users/Arianna/Downloads/AG-subject-3.csv","legacy","2 4 8 5 1 3","Lentiform Loewenfeld","3.3.3","1","y","0","right","right","right","right","NA","706","32001","44867","706","NA","NA","NA","2","legacy","6","1024","2","48000","-16","experiment","3","odd","2","295104","291773","292859","3621","156499","292872","NA","NA","124497","3636","297118","297825","293887","48529","297118","NA","NA","Sternberg Task","34","29892","35","yes","1024"
"97.22222222222223","97.22222222222223","850.0555555555555","850.0555555555555","black","experiment","legacy","legacy","legacy","0","uniform","1","undefined","1","left","35","35","35","0","0","35","NA","35","0","0","35","35","35","0","35","0","NA","Sun Oct 25 13:46:23 2020","The main experiment item","yes","SternbergTask.osexp","/Users/Arianna/Desktop","no","mono","no","18","no","white","no","yes","768","legacy","23","11","/Users/Arianna/Downloads/AG-subject-3.csv","legacy","7 1 8 5 6 2","Lentiform Loewenfeld","3.3.3","2","y","0","left","right","right","left","NA","710","32001","44867","710","NA","NA","NA","2","legacy","6","1024","2","48000","-16","experiment","3","odd","1","301185","291773","298939","3621","156499","298952","NA","297852","124497","3636","303198","303909","299968","48529","303198","NA","NA","Sternberg Task","35","30602","36","yes","1024"
"97.29729729729729","97.29729729729729","842.8108108108108","842.8108108108108","black","experiment","legacy","legacy","legacy","0","uniform","1","undefined","1","left","36","36","36","0","0","36","NA","36","0","0","36","36","36","0","36","0","NA","Sun Oct 25 13:46:23 2020","The main experiment item","yes","SternbergTask.osexp","/Users/Arianna/Desktop","no","mono","no","18","no","white","no","yes","768","legacy","24","11","/Users/Arianna/Downloads/AG-subject-3.csv","legacy","6 2","Lentiform Loewenfeld","3.3.3","1","y","0","left","right","right","left","NA","582","32001","44867","582","NA","NA","NA","2","legacy","2","1024","2","48000","-16","experiment","3","odd","6","307266","303935","305020","3621","156499","305032","NA","297852","124497","3636","309280","309864","306049","48529","309280","NA","NA","Sternberg Task","36","31184","37","yes","1024"
"94.73684210526316","94.73684210526316","842.2631578947369","842.2631578947369","black","experiment","legacy","legacy","legacy","0","uniform","0","undefined","0","left","37","37","37","0","0","37","NA","37","0","0","37","37","37","0","37","0","NA","Sun Oct 25 13:46:23 2020","The main experiment item","yes","SternbergTask.osexp","/Users/Arianna/Desktop","no","mono","no","18","no","white","no","yes","768","legacy","25","11","/Users/Arianna/Downloads/AG-subject-3.csv","legacy","1 4 9 3 2 5","Lentiform Loewenfeld","3.3.3","3","y","0","right","right","right","right","NA","822","32001","44867","822","NA","NA","NA","2","legacy","6","1024","2","48000","-16","experiment","3","odd","9","313219","309891","310976","3621","156499","310989","NA","297852","124497","3636","315234","316057","312001","48529","315234","NA","NA","Sternberg Task","36","32006","38","yes","1024"
"94.87179487179488","94.87179487179488","837","837","black","experiment","legacy","legacy","legacy","0","uniform","1","undefined","1","left","38","38","38","0","0","38","NA","38","0","0","38","38","38","0","38","0","NA","Sun Oct 25 13:46:23 2020","The main experiment item","yes","SternbergTask.osexp","/Users/Arianna/Desktop","no","mono","no","18","no","white","no","yes","768","legacy","26","11","/Users/Arianna/Downloads/AG-subject-3.csv","legacy","6 7 8 5","Lentiform Loewenfeld","3.3.3","3","y","0","left","right","right","left","NA","637","32001","44867","637","NA","NA","NA","2","legacy","4","1024","2","48000","-16","experiment","3","odd","8","319410","309891","317165","3621","156499","317178","NA","316078","124497","3636","321424","322062","318193","48529","321424","NA","NA","Sternberg Task","37","32643","39","yes","1024"
"95","95","831.1","831.1","black","experiment","legacy","legacy","legacy","0","uniform","1","undefined","1","right","39","39","39","0","0","39","NA","39","0","0","39","39","39","0","39","0","NA","Sun Oct 25 13:46:23 2020","The main experiment item","yes","SternbergTask.osexp","/Users/Arianna/Desktop","no","mono","no","18","no","white","no","yes","768","legacy","27","11","/Users/Arianna/Downloads/AG-subject-3.csv","legacy","5","Lentiform Loewenfeld","3.3.3","0","n","0","right","right","right","right","NA","601","32001","44867","601","NA","NA","NA","2","legacy","1","1024","2","48000","-16","experiment","3","odd","8","325421","322085","323174","3621","156499","323188","NA","316078","124497","3636","327435","328038","324204","48529","327435","NA","NA","Sternberg Task","38","33244","40","yes","1024"
"95.1219512195122","95.1219512195122","825.439024390244","825.439024390244","black","experiment","legacy","legacy","legacy","0","uniform","1","undefined","1","right","40","40","40","0","0","40","NA","40","0","0","40","40","40","0","40","0","NA","Sun Oct 25 13:46:23 2020","The main experiment item","yes","SternbergTask.osexp","/Users/Arianna/Desktop","no","mono","no","18","no","white","no","yes","768","legacy","28","11","/Users/Arianna/Downloads/AG-subject-3.csv","legacy","6 8","Lentiform Loewenfeld","3.3.3","0","n","0","right","right","right","right","NA","599","32001","44867","599","NA","NA","NA","2","legacy","2","1024","2","48000","-16","experiment","3","odd","9","331399","328066","329154","3621","156499","329167","NA","316078","124497","3636","333411","334012","330182","48529","333411","NA","NA","Sternberg Task","39","33843","41","yes","1024"
"95.23809523809524","95.23809523809524","819.4285714285714","819.4285714285714","black","experiment","legacy","legacy","legacy","0","uniform","1","undefined","1","left","41","41","41","0","0","41","NA","41","0","0","41","41","41","0","41","0","NA","Sun Oct 25 13:46:23 2020","The main experiment item","yes","SternbergTask.osexp","/Users/Arianna/Desktop","no","mono","no","18","no","white","no","yes","768","legacy","29","11","/Users/Arianna/Downloads/AG-subject-3.csv","legacy","5 2 6","Lentiform Loewenfeld","3.3.3","2","y","0","left","right","right","left","NA","573","32001","44867","573","NA","NA","NA","2","legacy","3","1024","2","48000","-16","experiment","3","odd","2","337370","334039","335125","3621","156499","335138","NA","316078","124497","3636","339385","339959","336153","48529","339385","NA","NA","Sternberg Task","40","34416","42","yes","1024"
"95.34883720930233","95.34883720930233","822.5813953488372","822.5813953488372","black","experiment","legacy","legacy","legacy","0","uniform","1","undefined","1","left","42","42","42","0","0","42","NA","42","0","0","42","42","42","0","42","0","NA","Sun Oct 25 13:46:23 2020","The main experiment item","yes","SternbergTask.osexp","/Users/Arianna/Desktop","no","mono","no","18","no","white","no","yes","768","legacy","30","11","/Users/Arianna/Downloads/AG-subject-3.csv","legacy","9 3 1 2 5","Lentiform Loewenfeld","3.3.3","4","y","0","left","right","right","left","NA","955","32001","44867","955","NA","NA","NA","2","legacy","5","1024","2","48000","-16","experiment","3","odd","2","343318","339986","341072","3621","156499","341085","NA","316078","124497","3636","345331","346287","342101","48529","345331","NA","NA","Sternberg Task","41","35371","43","yes","1024"
"95.45454545454545","95.45454545454545","814.7954545454545","814.7954545454545","black","experiment","legacy","legacy","legacy","0","uniform","1","undefined","1","left","43","43","43","0","0","43","NA","43","0","0","43","43","43","0","43","0","NA","Sun Oct 25 13:46:23 2020","The main experiment item","yes","SternbergTask.osexp","/Users/Arianna/Desktop","no","mono","no","18","no","white","no","yes","768","legacy","31","11","/Users/Arianna/Downloads/AG-subject-3.csv","legacy","8 3","Lentiform Loewenfeld","3.3.3","2","y","0","left","right","right","left","NA","480","32001","44867","480","NA","NA","NA","2","legacy","2","1024","2","48000","-16","experiment","3","odd","3","349638","346309","347393","3621","156499","347406","NA","316078","124497","3636","351652","352133","348421","48529","351652","NA","NA","Sternberg Task","42","35851","44","yes","1024"
"95.55555555555556","95.55555555555556","810.3777777777777","810.3777777777777","black","experiment","legacy","legacy","legacy","0","uniform","1","undefined","1","left","44","44","44","0","0","44","NA","44","0","0","44","44","44","0","44","0","NA","Sun Oct 25 13:46:23 2020","The main experiment item","yes","SternbergTask.osexp","/Users/Arianna/Desktop","no","mono","no","18","no","white","no","yes","768","legacy","32","11","/Users/Arianna/Downloads/AG-subject-3.csv","legacy","4 3 2 5 8","Lentiform Loewenfeld","3.3.3","2","y","0","left","right","right","left","NA","616","32001","44867","616","NA","NA","NA","2","legacy","5","1024","2","48000","-16","experiment","3","odd","3","355479","352149","353234","3621","156499","353247","NA","316078","124497","3636","357493","358110","354262","48529","357493","NA","NA","Sternberg Task","43","36467","45","yes","1024"
"95.65217391304348","95.65217391304348","807.4130434782609","807.4130434782609","black","experiment","legacy","legacy","legacy","0","uniform","1","undefined","1","right","45","45","45","0","0","45","NA","45","0","0","45","45","45","0","45","0","NA","Sun Oct 25 13:46:23 2020","The main experiment item","yes","SternbergTask.osexp","/Users/Arianna/Desktop","no","mono","no","18","no","white","no","yes","768","legacy","33","11","/Users/Arianna/Downloads/AG-subject-3.csv","legacy","2 8 9","Lentiform Loewenfeld","3.3.3","0","n","0","right","right","right","right","NA","674","32001","44867","674","NA","NA","NA","2","legacy","3","1024","2","48000","-16","experiment","3","odd","6","361465","358132","359220","3621","156499","359233","NA","316078","124497","3636","363479","364154","360248","48529","363478","NA","NA","Sternberg Task","44","37141","46","yes","1024"
"95.74468085106383","95.74468085106383","805.9787234042553","805.9787234042553","black","experiment","legacy","legacy","legacy","0","uniform","1","undefined","1","left","46","46","46","0","0","46","NA","46","0","0","46","46","46","0","46","0","NA","Sun Oct 25 13:46:23 2020","The main experiment item","yes","SternbergTask.osexp","/Users/Arianna/Desktop","no","mono","no","18","no","white","no","yes","768","legacy","34","11","/Users/Arianna/Downloads/AG-subject-3.csv","legacy","2 4 6 9","Lentiform Loewenfeld","3.3.3","3","y","0","left","right","right","left","NA","740","32001","44867","740","NA","NA","NA","2","legacy","4","1024","2","48000","-16","experiment","3","odd","6","367511","364177","365266","3621","156499","365278","NA","316078","124497","3636","369525","370266","366294","48529","369524","NA","NA","Sternberg Task","45","37881","47","yes","1024"
"95.83333333333333","95.83333333333333","804.4791666666666","804.4791666666666","black","experiment","legacy","legacy","legacy","0","uniform","1","undefined","1","right","47","47","47","0","0","47","NA","47","0","0","47","47","47","0","47","0","NA","Sun Oct 25 13:46:23 2020","The main experiment item","yes","SternbergTask.osexp","/Users/Arianna/Desktop","no","mono","no","18","no","white","no","yes","768","legacy","35","11","/Users/Arianna/Downloads/AG-subject-3.csv","legacy","1 4 9 3","Lentiform Loewenfeld","3.3.3","0","n","0","right","right","right","right","NA","734","32001","44867","734","NA","NA","NA","2","legacy","4","1024","2","48000","-16","experiment","3","odd","5","373620","370289","371375","3621","156499","371388","NA","316078","124497","3636","375634","376369","372403","48529","375634","NA","NA","Sternberg Task","46","38615","48","yes","1024"
"93.87755102040816","93.87755102040816","801.6734693877551","801.6734693877551","black","experiment","legacy","legacy","legacy","0","uniform","0","undefined","0","right","48","48","48","0","0","48","NA","48","0","0","48","48","48","0","48","0","NA","Sun Oct 25 13:46:23 2020","The main experiment item","yes","SternbergTask.osexp","/Users/Arianna/Desktop","no","mono","no","18","no","white","no","yes","768","legacy","36","11","/Users/Arianna/Downloads/AG-subject-3.csv","legacy","5 3 2 6 9 8","Lentiform Loewenfeld","3.3.3","0","n","0","left","right","right","left","NA","667","32001","44867","667","NA","NA","NA","2","legacy","6","1024","2","48000","-16","experiment","3","odd","4","379723","376393","377478","3621","156499","377491","NA","316078","124497","3636","381737","382405","378506","48529","381737","NA","NA","Sternberg Task","46","39282","49","yes","1024"
"94","94","802.64","802.64","black","experiment","legacy","legacy","legacy","0","uniform","1","undefined","1","right","49","49","49","0","0","49","NA","49","0","0","49","49","49","0","49","0","NA","Sun Oct 25 13:46:23 2020","The main experiment item","yes","SternbergTask.osexp","/Users/Arianna/Desktop","no","mono","no","18","no","white","no","yes","768","legacy","37","11","/Users/Arianna/Downloads/AG-subject-3.csv","legacy","2 7 5","Lentiform Loewenfeld","3.3.3","0","n","0","right","right","right","right","NA","850","32001","44867","850","NA","NA","NA","2","legacy","3","1024","2","48000","-16","experiment","3","odd","8","385760","376393","383514","3621","156499","383527","NA","382428","124497","3636","387774","388626","384542","48529","387774","NA","NA","Sternberg Task","47","40132","50","yes","1024"
"94.11764705882354","94.11764705882354","805.4509803921569","805.4509803921569","black","experiment","legacy","legacy","legacy","0","uniform","1","undefined","1","right","50","50","50","0","0","50","NA","50","0","0","50","50","50","0","50","0","NA","Sun Oct 25 13:46:23 2020","The main experiment item","yes","SternbergTask.osexp","/Users/Arianna/Desktop","no","mono","no","18","no","white","no","yes","768","legacy","38","11","/Users/Arianna/Downloads/AG-subject-3.csv","legacy","7 1 8 4 9 3","Lentiform Loewenfeld","3.3.3","0","n","0","right","right","right","right","NA","946","32001","44867","946","NA","NA","NA","2","legacy","6","1024","2","48000","-16","experiment","3","odd","6","391984","388653","389739","3621","156499","389752","NA","382428","124497","3636","393998","394945","390767","48529","393998","NA","NA","Sternberg Task","48","41078","51","yes","1024"
"94.23076923076923","94.23076923076923","806.8461538461538","806.8461538461538","black","experiment","legacy","legacy","legacy","0","uniform","1","undefined","1","right","51","51","51","0","0","51","NA","51","0","0","51","51","51","0","51","0","NA","Sun Oct 25 13:46:23 2020","The main experiment item","yes","SternbergTask.osexp","/Users/Arianna/Desktop","no","mono","no","18","no","white","no","yes","768","legacy","39","11","/Users/Arianna/Downloads/AG-subject-3.csv","legacy","6 7 5 9","Lentiform Loewenfeld","3.3.3","0","n","0","right","right","right","right","NA","878","32001","44867","878","NA","NA","NA","2","legacy","4","1024","2","48000","-16","experiment","3","odd","2","398303","394972","396058","3621","156499","396071","NA","382428","124497","3636","400317","401196","397086","48529","400317","NA","NA","Sternberg Task","49","41956","52","yes","1024"
"94.33962264150944","94.33962264150944","806.566037735849","806.566037735849","black","experiment","legacy","legacy","legacy","0","uniform","1","undefined","1","right","52","52","52","0","0","52","NA","52","0","0","52","52","52","0","52","0","NA","Sun Oct 25 13:46:23 2020","The main experiment item","yes","SternbergTask.osexp","/Users/Arianna/Desktop","no","mono","no","18","no","white","no","yes","768","legacy","40","11","/Users/Arianna/Downloads/AG-subject-3.csv","legacy","9 7 4 5 8","Lentiform Loewenfeld","3.3.3","0","n","0","right","right","right","right","NA","792","32001","44867","792","NA","NA","NA","2","legacy","5","1024","2","48000","-16","experiment","3","odd","6","404552","401219","402306","3621","156499","402319","NA","382428","124497","3636","406566","407359","403335","48529","406565","NA","NA","Sternberg Task","50","42748","53","yes","1024"
"94.44444444444444","94.44444444444444","806.2222222222222","806.2222222222222","black","experiment","legacy","legacy","legacy","0","uniform","1","undefined","1","right","53","53","53","0","0","53","NA","53","0","0","53","53","53","0","53","0","NA","Sun Oct 25 13:46:23 2020","The main experiment item","yes","SternbergTask.osexp","/Users/Arianna/Desktop","no","mono","no","18","no","white","no","yes","768","legacy","41","11","/Users/Arianna/Downloads/AG-subject-3.csv","legacy","8 6 3 4 7","Lentiform Loewenfeld","3.3.3","0","n","0","right","right","right","right","NA","788","32001","44867","788","NA","NA","NA","2","legacy","5","1024","2","48000","-16","experiment","3","odd","1","410714","407382","408469","3621","156499","408482","NA","382428","124497","3636","412729","413518","409497","48529","412728","NA","NA","Sternberg Task","51","43536","54","yes","1024"
"94.54545454545455","94.54545454545455","809.3090909090909","809.3090909090909","black","experiment","legacy","legacy","legacy","0","uniform","1","undefined","1","left","54","54","54","0","0","54","NA","54","0","0","54","54","54","0","54","0","NA","Sun Oct 25 13:46:23 2020","The main experiment item","yes","SternbergTask.osexp","/Users/Arianna/Desktop","no","mono","no","18","no","white","no","yes","768","legacy","42","11","/Users/Arianna/Downloads/AG-subject-3.csv","legacy","3 5 9 6 2 4","Lentiform Loewenfeld","3.3.3","1","y","0","left","right","right","left","NA","976","32001","44867","976","NA","NA","NA","2","legacy","6","1024","2","48000","-16","experiment","3","odd","3","416871","413545","414630","3621","156499","414643","NA","382428","124497","3636","418885","419863","415658","48529","418885","NA","NA","Sternberg Task","52","44512","55","yes","1024"
"94.64285714285714","94.64285714285714","810.9642857142857","810.9642857142857","black","experiment","legacy","legacy","legacy","0","uniform","1","undefined","1","left","55","55","55","0","0","55","NA","55","0","0","55","55","55","0","55","0","NA","Sun Oct 25 13:46:23 2020","The main experiment item","yes","SternbergTask.osexp","/Users/Arianna/Desktop","no","mono","no","18","no","white","no","yes","768","legacy","43","11","/Users/Arianna/Downloads/AG-subject-3.csv","legacy","8 5 3 7 4 6","Lentiform Loewenfeld","3.3.3","6","y","0","left","right","right","left","NA","902","32001","44867","902","NA","NA","NA","2","legacy","6","1024","2","48000","-16","experiment","3","odd","6","423220","419889","420975","3621","156499","420987","NA","382428","124497","3636","425234","426137","422002","48529","425234","NA","NA","Sternberg Task","53","45414","56","yes","1024"
"94.73684210526316","94.73684210526316","811.438596491228","811.438596491228","black","experiment","legacy","legacy","legacy","0","uniform","1","undefined","1","right","56","56","56","0","0","56","NA","56","0","0","56","56","56","0","56","0","NA","Sun Oct 25 13:46:23 2020","The main experiment item","yes","SternbergTask.osexp","/Users/Arianna/Desktop","no","mono","no","18","no","white","no","yes","768","legacy","44","11","/Users/Arianna/Downloads/AG-subject-3.csv","legacy","7 9","Lentiform Loewenfeld","3.3.3","0","n","0","right","right","right","right","NA","838","32001","44867","838","NA","NA","NA","2","legacy","2","1024","2","48000","-16","experiment","3","odd","1","429490","426160","427245","3621","156499","427258","NA","382428","124497","3636","431504","432343","428273","48529","431504","NA","NA","Sternberg Task","54","46252","57","yes","1024"
"94.82758620689656","94.82758620689656","807.2413793103449","807.2413793103449","black","experiment","legacy","legacy","legacy","0","uniform","1","undefined","1","left","57","57","57","0","0","57","NA","57","0","0","57","57","57","0","57","0","NA","Sun Oct 25 13:46:23 2020","The main experiment item","yes","SternbergTask.osexp","/Users/Arianna/Desktop","no","mono","no","18","no","white","no","yes","768","legacy","45","11","/Users/Arianna/Downloads/AG-subject-3.csv","legacy","9 1 6 7 8","Lentiform Loewenfeld","3.3.3","1","y","0","left","right","right","left","NA","568","32001","44867","568","NA","NA","NA","2","legacy","5","1024","2","48000","-16","experiment","3","odd","9","435701","432366","433456","3621","156499","433469","NA","382428","124497","3636","437715","438284","434484","48529","437715","NA","NA","Sternberg Task","55","46820","58","yes","1024"
"94.91525423728814","94.91525423728814","815.7796610169491","815.7796610169491","black","experiment","legacy","legacy","legacy","0","uniform","1","undefined","1","left","58","58","58","0","0","58","NA","58","0","0","58","58","58","0","58","0","NA","Sun Oct 25 13:46:23 2020","The main experiment item","yes","SternbergTask.osexp","/Users/Arianna/Desktop","no","mono","no","18","no","white","no","yes","768","legacy","46","11","/Users/Arianna/Downloads/AG-subject-3.csv","legacy","7 4 2 6 3 5","Lentiform Loewenfeld","3.3.3","6","y","0","left","right","right","left","NA","1311","32001","44867","1311","NA","NA","NA","2","legacy","6","1024","2","48000","-16","experiment","3","odd","5","441640","438307","439394","3621","156499","439407","NA","382428","124497","3636","443654","444967","440423","48529","443654","NA","NA","Sternberg Task","56","48131","59","yes","1024"
"95","95","810.9666666666667","810.9666666666667","black","experiment","legacy","legacy","legacy","0","uniform","1","undefined","1","left","59","59","59","0","0","59","NA","59","0","0","59","59","59","0","59","0","NA","Sun Oct 25 13:46:23 2020","The main experiment item","yes","SternbergTask.osexp","/Users/Arianna/Desktop","no","mono","no","18","no","white","no","yes","768","legacy","47","11","/Users/Arianna/Downloads/AG-subject-3.csv","legacy","6 1 2","Lentiform Loewenfeld","3.3.3","3","y","0","left","right","right","left","NA","527","32001","44867","527","NA","NA","NA","2","legacy","3","1024","2","48000","-16","experiment","3","odd","2","448323","444993","446078","3621","156499","446091","NA","382428","124497","3636","450337","450865","447106","48529","450337","NA","NA","Sternberg Task","57","48658","60","yes","1024"
"95.08196721311475","95.08196721311475","810.1475409836065","810.1475409836065","black","experiment","legacy","legacy","legacy","0","uniform","1","undefined","1","left","60","60","60","0","0","60","NA","60","0","0","60","60","60","0","60","0","NA","Sun Oct 25 13:46:23 2020","The main experiment item","yes","SternbergTask.osexp","/Users/Arianna/Desktop","no","mono","no","18","no","white","no","yes","768","legacy","48","11","/Users/Arianna/Downloads/AG-subject-3.csv","legacy","7 8 4 6 9 5","Lentiform Loewenfeld","3.3.3","4","y","0","left","right","right","left","NA","761","32001","44867","761","NA","NA","NA","2","legacy","6","1024","2","48000","-16","experiment","3","odd","6","454222","450892","451977","3621","156499","451990","NA","382428","124497","3636","456236","456998","453004","48529","456235","NA","NA","Sternberg Task","58","49419","61","yes","1024"
"95.16129032258064","95.16129032258064","819.9354838709677","819.9354838709677","black","experiment","legacy","legacy","legacy","0","uniform","1","undefined","1","right","61","61","61","0","0","61","NA","61","0","0","61","61","61","0","61","0","NA","Sun Oct 25 13:46:23 2020","The main experiment item","yes","SternbergTask.osexp","/Users/Arianna/Desktop","no","mono","no","18","no","white","no","yes","768","legacy","49","11","/Users/Arianna/Downloads/AG-subject-3.csv","legacy","4 2 6 9","Lentiform Loewenfeld","3.3.3","0","n","0","right","right","right","right","NA","1417","32001","44867","1417","NA","NA","NA","2","legacy","4","1024","2","48000","-16","experiment","3","odd","7","460360","457024","458114","3621","156499","458127","NA","382428","124497","3636","462376","463795","459143","48529","462376","NA","NA","Sternberg Task","59","50836","62","yes","1024"
"95.23809523809524","95.23809523809524","817.3968253968254","817.3968253968254","black","experiment","legacy","legacy","legacy","0","uniform","1","undefined","1","right","62","62","62","0","0","62","NA","62","0","0","62","62","62","0","62","0","NA","Sun Oct 25 13:46:23 2020","The main experiment item","yes","SternbergTask.osexp","/Users/Arianna/Desktop","no","mono","no","18","no","white","no","yes","768","legacy","50","11","/Users/Arianna/Downloads/AG-subject-3.csv","legacy","2 6 4 3 9","Lentiform Loewenfeld","3.3.3","0","n","0","right","right","right","right","NA","660","32001","44867","660","NA","NA","NA","2","legacy","5","1024","2","48000","-16","experiment","3","odd","1","467143","463811","464898","3621","156499","464911","NA","382428","124497","3636","469157","469819","465926","48529","469157","NA","NA","Sternberg Task","60","51496","63","yes","1024"
"95.3125","95.3125","815.234375","815.234375","black","experiment","legacy","legacy","legacy","0","uniform","1","undefined","1","left","63","63","63","0","0","63","NA","63","0","0","63","63","63","0","63","0","NA","Sun Oct 25 13:46:23 2020","The main experiment item","yes","SternbergTask.osexp","/Users/Arianna/Desktop","no","mono","no","18","no","white","no","yes","768","legacy","51","11","/Users/Arianna/Downloads/AG-subject-3.csv","legacy","9 5 8 1","Lentiform Loewenfeld","3.3.3","2","y","0","left","right","right","left","NA","679","32001","44867","679","NA","NA","NA","2","legacy","4","1024","2","48000","-16","experiment","3","odd","5","473175","469846","470931","3621","156499","470943","NA","382428","124497","3636","475189","475869","471958","48529","475189","NA","NA","Sternberg Task","61","52175","64","yes","1024"
"95.38461538461539","95.38461538461539","812.876923076923","812.876923076923","black","experiment","legacy","legacy","legacy","0","uniform","1","undefined","1","right","64","64","64","0","0","64","NA","64","0","0","64","64","64","0","64","0","NA","Sun Oct 25 13:46:23 2020","The main experiment item","yes","SternbergTask.osexp","/Users/Arianna/Desktop","no","mono","no","18","no","white","no","yes","768","legacy","52","11","/Users/Arianna/Downloads/AG-subject-3.csv","legacy","1 4 9 2 5","Lentiform Loewenfeld","3.3.3","0","n","0","right","right","right","right","NA","662","32001","44867","662","NA","NA","NA","2","legacy","5","1024","2","48000","-16","experiment","3","odd","7","479224","475895","476980","3621","156499","476993","NA","382428","124497","3636","481238","481902","478007","48529","481238","NA","NA","Sternberg Task","62","52837","65","yes","1024"
"95.45454545454545","95.45454545454545","811.7727272727273","811.7727272727273","black","experiment","legacy","legacy","legacy","0","uniform","1","undefined","1","right","65","65","65","0","0","65","NA","65","0","0","65","65","65","0","65","0","NA","Sun Oct 25 13:46:23 2020","The main experiment item","yes","SternbergTask.osexp","/Users/Arianna/Desktop","no","mono","no","18","no","white","no","yes","768","legacy","53","11","/Users/Arianna/Downloads/AG-subject-3.csv","legacy","2 8 6 3 1","Lentiform Loewenfeld","3.3.3","0","n","0","right","right","right","right","NA","740","32001","44867","740","NA","NA","NA","2","legacy","5","1024","2","48000","-16","experiment","3","odd","7","485257","481929","483012","3621","156499","483025","NA","382428","124497","3636","487272","488014","484040","48529","487272","NA","NA","Sternberg Task","63","53577","66","yes","1024"
"95.5223880597015","95.5223880597015","808.9104477611941","808.9104477611941","black","experiment","legacy","legacy","legacy","0","uniform","1","undefined","1","right","66","66","66","0","0","66","NA","66","0","0","66","66","66","0","66","0","NA","Sun Oct 25 13:46:23 2020","The main experiment item","yes","SternbergTask.osexp","/Users/Arianna/Desktop","no","mono","no","18","no","white","no","yes","768","legacy","54","11","/Users/Arianna/Downloads/AG-subject-3.csv","legacy","1 6 4","Lentiform Loewenfeld","3.3.3","0","n","0","right","right","right","right","NA","620","32001","44867","620","NA","NA","NA","2","legacy","3","1024","2","48000","-16","experiment","3","odd","7","491372","488040","489126","3621","156499","489139","NA","382428","124497","3636","493386","494008","490155","48529","493386","NA","NA","Sternberg Task","64","54197","67","yes","1024"
"95.58823529411765","95.58823529411765","807.3235294117648","807.3235294117648","black","experiment","legacy","legacy","legacy","0","uniform","1","undefined","1","left","67","67","67","0","0","67","NA","67","0","0","67","67","67","0","67","0","NA","Sun Oct 25 13:46:23 2020","The main experiment item","yes","SternbergTask.osexp","/Users/Arianna/Desktop","no","mono","no","18","no","white","no","yes","768","legacy","55","11","/Users/Arianna/Downloads/AG-subject-3.csv","legacy","8 1 6","Lentiform Loewenfeld","3.3.3","3","y","0","left","right","right","left","NA","701","32001","44867","701","NA","NA","NA","2","legacy","3","1024","2","48000","-16","experiment","3","odd","6","497358","494022","495113","3621","156499","495126","NA","382428","124497","3636","499372","500074","496141","48529","499372","NA","NA","Sternberg Task","65","54898","68","yes","1024"
"95.65217391304348","95.65217391304348","806.6086956521739","806.6086956521739","black","experiment","legacy","legacy","legacy","0","uniform","1","undefined","1","right","68","68","68","0","0","68","NA","68","0","0","68","68","68","0","68","0","NA","Sun Oct 25 13:46:23 2020","The main experiment item","yes","SternbergTask.osexp","/Users/Arianna/Desktop","no","mono","no","18","no","white","no","yes","768","legacy","56","11","/Users/Arianna/Downloads/AG-subject-3.csv","legacy","7 1 5 6 3","Lentiform Loewenfeld","3.3.3","0","n","0","right","right","right","right","NA","758","32001","44867","758","NA","NA","NA","2","legacy","5","1024","2","48000","-16","experiment","3","odd","8","503428","500098","501183","3621","156499","501196","NA","382428","124497","3636","505442","506201","502211","48529","505441","NA","NA","Sternberg Task","66","55656","69","yes","1024"
"95.71428571428571","95.71428571428571","803.8285714285714","803.8285714285714","black","experiment","legacy","legacy","legacy","0","uniform","1","undefined","1","left","69","69","69","0","0","69","NA","69","0","0","69","69","69","0","69","0","NA","Sun Oct 25 13:46:23 2020","The main experiment item","yes","SternbergTask.osexp","/Users/Arianna/Desktop","no","mono","no","18","no","white","no","yes","768","legacy","57","11","/Users/Arianna/Downloads/AG-subject-3.csv","legacy","6 5","Lentiform Loewenfeld","3.3.3","2","y","0","left","right","right","left","NA","612","32001","44867","612","NA","NA","NA","2","legacy","2","1024","2","48000","-16","experiment","3","odd","5","509555","506224","507309","3621","156499","507322","NA","382428","124497","3636","511569","512182","508338","48529","511569","NA","NA","Sternberg Task","67","56268","70","yes","1024"
"95.77464788732394","95.77464788732394","803.0140845070423","803.0140845070423","black","experiment","legacy","legacy","legacy","0","uniform","1","undefined","1","right","70","70","70","0","0","70","NA","70","0","0","70","70","70","0","70","0","NA","Sun Oct 25 13:46:23 2020","The main experiment item","yes","SternbergTask.osexp","/Users/Arianna/Desktop","no","mono","no","18","no","white","no","yes","768","legacy","58","11","/Users/Arianna/Downloads/AG-subject-3.csv","legacy","5 9 2 3","Lentiform Loewenfeld","3.3.3","0","n","0","right","right","right","right","NA","746","32001","44867","746","NA","NA","NA","2","legacy","4","1024","2","48000","-16","experiment","3","odd","8","515534","512205","513289","3621","156499","513302","NA","382428","124497","3636","517548","518296","514317","48529","517547","NA","NA","Sternberg Task","68","57014","71","yes","1024"
"95.83333333333333","95.83333333333333","802.5694444444445","802.5694444444445","black","experiment","legacy","legacy","legacy","0","uniform","1","undefined","1","right","71","71","71","0","0","71","NA","71","0","0","71","71","71","0","71","0","NA","Sun Oct 25 13:46:23 2020","The main experiment item","yes","SternbergTask.osexp","/Users/Arianna/Desktop","no","mono","no","18","no","white","no","yes","768","legacy","59","11","/Users/Arianna/Downloads/AG-subject-3.csv","legacy","7 1","Lentiform Loewenfeld","3.3.3","0","n","0","right","right","right","right","NA","771","32001","44867","771","NA","NA","NA","2","legacy","2","1024","2","48000","-16","experiment","3","odd","8","521650","518320","519405","3621","156499","519417","NA","382428","124497","3636","523664","524437","520433","48529","523664","NA","NA","Sternberg Task","69","57785","72","yes","1024"
"95.89041095890411","95.89041095890411","802.054794520548","802.054794520548","black","experiment","legacy","legacy","legacy","0","uniform","1","undefined","1","right","72","72","72","0","0","72","NA","72","0","0","72","72","72","0","72","0","NA","Sun Oct 25 13:46:23 2020","The main experiment item","yes","SternbergTask.osexp","/Users/Arianna/Desktop","no","mono","no","18","no","white","no","yes","768","legacy","60","11","/Users/Arianna/Downloads/AG-subject-3.csv","legacy","3 9 8 1 6 4","Lentiform Loewenfeld","3.3.3","0","n","0","right","right","right","right","NA","765","32001","44867","765","NA","NA","NA","2","legacy","6","1024","2","48000","-16","experiment","3","odd","7","527810","524465","525562","3621","156499","525577","NA","382428","124497","3636","529824","530590","526592","48529","529824","NA","NA","Sternberg Task","70","58550","73","yes","1024"
"95.94594594594595","95.94594594594595","803.1891891891892","803.1891891891892","black","experiment","legacy","legacy","legacy","0","uniform","1","undefined","1","left","73","73","73","0","0","73","NA","73","0","0","73","73","73","0","73","0","NA","Sun Oct 25 13:46:23 2020","The main experiment item","yes","SternbergTask.osexp","/Users/Arianna/Desktop","no","mono","no","18","no","white","no","yes","768","legacy","61","11","/Users/Arianna/Downloads/AG-subject-3.csv","legacy","3 9 7 6 4","Lentiform Loewenfeld","3.3.3","3","y","0","left","right","right","left","NA","886","32001","44867","886","NA","NA","NA","2","legacy","5","1024","2","48000","-16","experiment","3","odd","7","533946","530615","531700","3621","156499","531712","NA","382428","124497","3636","535960","536847","532728","48529","535960","NA","NA","Sternberg Task","71","59436","74","yes","1024"
"96","96","799.4","799.4","black","experiment","legacy","legacy","legacy","0","uniform","1","undefined","1","left","74","74","74","0","0","74","NA","74","0","0","74","74","74","0","74","0","NA","Sun Oct 25 13:46:23 2020","The main experiment item","yes","SternbergTask.osexp","/Users/Arianna/Desktop","no","mono","no","18","no","white","no","yes","768","legacy","62","11","/Users/Arianna/Downloads/AG-subject-3.csv","legacy","5 7 8 2 3 8","Lentiform Loewenfeld","3.3.3","5","y","0","left","right","right","left","NA","519","32001","44867","519","NA","NA","NA","2","legacy","6","1024","2","48000","-16","experiment","3","odd","3","540206","536874","537959","3621","156499","537972","NA","382428","124497","3636","542219","542740","538987","48529","542219","NA","NA","Sternberg Task","72","59955","75","yes","1024"
"96.05263157894737","96.05263157894737","808.25","808.25","black","experiment","legacy","legacy","legacy","0","uniform","1","undefined","1","left","75","75","75","0","0","75","NA","75","0","0","75","75","75","0","75","0","NA","Sun Oct 25 13:46:23 2020","The main experiment item","yes","SternbergTask.osexp","/Users/Arianna/Desktop","no","mono","no","18","no","white","no","yes","768","legacy","63","11","/Users/Arianna/Downloads/AG-subject-3.csv","legacy","5 2 9 6 1 7","Lentiform Loewenfeld","3.3.3","3","y","0","left","right","right","left","NA","1472","32001","44867","1472","NA","NA","NA","2","legacy","6","1024","2","48000","-16","experiment","3","odd","9","546101","542765","543856","3621","156499","543868","NA","382428","124497","3636","548115","549589","544884","48529","548115","NA","NA","Sternberg Task","73","61427","76","yes","1024"
"96.1038961038961","96.1038961038961","805.9090909090909","805.9090909090909","black","experiment","legacy","legacy","legacy","0","uniform","1","undefined","1","right","76","76","76","0","0","76","NA","76","0","0","76","76","76","0","76","0","NA","Sun Oct 25 13:46:23 2020","The main experiment item","yes","SternbergTask.osexp","/Users/Arianna/Desktop","no","mono","no","18","no","white","no","yes","768","legacy","64","11","/Users/Arianna/Downloads/AG-subject-3.csv","legacy","3 4 2","Lentiform Loewenfeld","3.3.3","0","n","0","right","right","right","right","NA","628","32001","44867","628","NA","NA","NA","2","legacy","3","1024","2","48000","-16","experiment","3","odd","5","552949","549616","550702","3621","156499","550715","NA","382428","124497","3636","554963","555594","551730","48529","554963","NA","NA","Sternberg Task","74","62055","77","yes","1024"
"96.15384615384616","96.15384615384616","802.0897435897435","802.0897435897435","black","experiment","legacy","legacy","legacy","0","uniform","1","undefined","1","left","77","77","77","0","0","77","NA","77","0","0","77","77","77","0","77","0","NA","Sun Oct 25 13:46:23 2020","The main experiment item","yes","SternbergTask.osexp","/Users/Arianna/Desktop","no","mono","no","18","no","white","no","yes","768","legacy","65","11","/Users/Arianna/Downloads/AG-subject-3.csv","legacy","7 2 3","Lentiform Loewenfeld","3.3.3","3","y","0","left","right","right","left","NA","508","32001","44867","508","NA","NA","NA","2","legacy","3","1024","2","48000","-16","experiment","3","odd","3","558940","555608","556694","3621","156499","556707","NA","382428","124497","3636","560954","561463","557723","48529","560954","NA","NA","Sternberg Task","75","62563","78","yes","1024"
"96.20253164556962","96.20253164556962","801.9746835443038","801.9746835443038","black","experiment","legacy","legacy","legacy","0","uniform","1","undefined","1","left","78","78","78","0","0","78","NA","78","0","0","78","78","78","0","78","0","NA","Sun Oct 25 13:46:23 2020","The main experiment item","yes","SternbergTask.osexp","/Users/Arianna/Desktop","no","mono","no","18","no","white","no","yes","768","legacy","66","11","/Users/Arianna/Downloads/AG-subject-3.csv","legacy","8 5 4 7 3 1","Lentiform Loewenfeld","3.3.3","2","y","0","left","right","right","left","NA","793","32001","44867","793","NA","NA","NA","2","legacy","6","1024","2","48000","-16","experiment","3","odd","5","564820","561490","562575","3621","156499","562588","NA","382428","124497","3636","566833","567628","563603","48529","566833","NA","NA","Sternberg Task","76","63356","79","yes","1024"
"96.25","96.25","803.075","803.075","black","experiment","legacy","legacy","legacy","0","uniform","1","undefined","1","right","79","79","79","0","0","79","NA","79","0","0","79","79","79","0","79","0","NA","Sun Oct 25 13:46:23 2020","The main experiment item","yes","SternbergTask.osexp","/Users/Arianna/Desktop","no","mono","no","18","no","white","no","yes","768","legacy","67","11","/Users/Arianna/Downloads/AG-subject-3.csv","legacy","7 3 2 8","Lentiform Loewenfeld","3.3.3","0","n","0","right","right","right","right","NA","890","32001","44867","890","NA","NA","NA","2","legacy","4","1024","2","48000","-16","experiment","3","odd","4","570986","567655","568742","3621","156499","568755","NA","382428","124497","3636","573000","573891","569770","48529","573000","NA","NA","Sternberg Task","77","64246","80","yes","1024"
"96.29629629629629","96.29629629629629","800.4074074074074","800.4074074074074","black","experiment","legacy","legacy","legacy","0","uniform","1","undefined","1","left","80","80","80","0","0","80","NA","80","0","0","80","80","80","0","80","0","NA","Sun Oct 25 13:46:23 2020","The main experiment item","yes","SternbergTask.osexp","/Users/Arianna/Desktop","no","mono","no","18","no","white","no","yes","768","legacy","68","11","/Users/Arianna/Downloads/AG-subject-3.csv","legacy","7","Lentiform Loewenfeld","3.3.3","1","y","0","left","right","right","left","NA","587","32001","44867","587","NA","NA","NA","2","legacy","1","1024","2","48000","-16","experiment","3","odd","7","577247","573918","575001","3621","156499","575014","NA","382428","124497","3636","579262","579850","576030","48529","579261","NA","NA","Sternberg Task","78","64833","81","yes","1024"
"96.34146341463415","96.34146341463415","800.8658536585366","800.8658536585366","black","experiment","legacy","legacy","legacy","0","uniform","1","undefined","1","right","81","81","81","0","0","81","NA","81","0","0","81","81","81","0","81","0","NA","Sun Oct 25 13:46:23 2020","The main experiment item","yes","SternbergTask.osexp","/Users/Arianna/Desktop","no","mono","no","18","no","white","no","yes","768","legacy","69","11","/Users/Arianna/Downloads/AG-subject-3.csv","legacy","1 4 3 6 5","Lentiform Loewenfeld","3.3.3","0","n","0","right","right","right","right","NA","838","32001","44867","838","NA","NA","NA","2","legacy","5","1024","2","48000","-16","experiment","3","odd","8","583208","579877","580963","3621","156499","580976","NA","382428","124497","3636","585222","586062","581991","48529","585222","NA","NA","Sternberg Task","79","65671","82","yes","1024"
"95.18072289156626","95.18072289156626","801.3253012048193","801.3253012048193","black","experiment","legacy","legacy","legacy","0","uniform","0","undefined","0","left","82","82","82","0","0","82","NA","82","0","0","82","82","82","0","82","0","NA","Sun Oct 25 13:46:23 2020","The main experiment item","yes","SternbergTask.osexp","/Users/Arianna/Desktop","no","mono","no","18","no","white","no","yes","768","legacy","70","11","/Users/Arianna/Downloads/AG-subject-3.csv","legacy","5 7 3 6 2","Lentiform Loewenfeld","3.3.3","5","y","0","right","right","right","right","NA","839","32001","44867","839","NA","NA","NA","2","legacy","5","1024","2","48000","-16","experiment","3","odd","2","589417","586085","587173","3621","156499","587185","NA","382428","124497","3636","591431","592271","588201","48529","591431","NA","NA","Sternberg Task","79","66510","83","yes","1024"
"95.23809523809524","95.23809523809524","802.9047619047619","802.9047619047619","black","experiment","legacy","legacy","legacy","0","uniform","1","undefined","1","right","83","83","83","0","0","83","NA","83","0","0","83","83","83","0","83","0","NA","Sun Oct 25 13:46:23 2020","The main experiment item","yes","SternbergTask.osexp","/Users/Arianna/Desktop","no","mono","no","18","no","white","no","yes","768","legacy","71","11","/Users/Arianna/Downloads/AG-subject-3.csv","legacy","5 2","Lentiform Loewenfeld","3.3.3","0","n","0","right","right","right","right","NA","934","32001","44867","934","NA","NA","NA","2","legacy","2","1024","2","48000","-16","experiment","3","odd","7","595628","586085","593382","3621","156499","593395","NA","592295","124497","3636","597642","598577","594410","48529","597642","NA","NA","Sternberg Task","80","67444","84","yes","1024"
"95.29411764705883","95.29411764705883","804.5411764705882","804.5411764705882","black","experiment","legacy","legacy","legacy","0","uniform","1","undefined","1","left","84","84","84","0","0","84","NA","84","0","0","84","84","84","0","84","0","NA","Sun Oct 25 13:46:23 2020","The main experiment item","yes","SternbergTask.osexp","/Users/Arianna/Desktop","no","mono","no","18","no","white","no","yes","768","legacy","72","11","/Users/Arianna/Downloads/AG-subject-3.csv","legacy","7 1 3","Lentiform Loewenfeld","3.3.3","2","y","0","left","right","right","left","NA","942","32001","44867","942","NA","NA","NA","2","legacy","3","1024","2","48000","-16","experiment","3","odd","1","601935","598603","599690","3621","156499","599703","NA","592295","124497","3636","603950","604894","600718","48529","603950","NA","NA","Sternberg Task","81","68386","85","yes","1024"
"95.34883720930233","95.34883720930233","804.0348837209302","804.0348837209302","black","experiment","legacy","legacy","legacy","0","uniform","1","undefined","1","left","85","85","85","0","0","85","NA","85","0","0","85","85","85","0","85","0","NA","Sun Oct 25 13:46:23 2020","The main experiment item","yes","SternbergTask.osexp","/Users/Arianna/Desktop","no","mono","no","18","no","white","no","yes","768","legacy","73","11","/Users/Arianna/Downloads/AG-subject-3.csv","legacy","8 5 1 3 9","Lentiform Loewenfeld","3.3.3","4","y","0","left","right","right","left","NA","761","32001","44867","761","NA","NA","NA","2","legacy","5","1024","2","48000","-16","experiment","3","odd","3","608261","604919","606011","3621","156499","606028","NA","592295","124497","3636","610275","611038","607043","48529","610275","NA","NA","Sternberg Task","82","69147","86","yes","1024"
"95.40229885057471","95.40229885057471","801.5057471264367","801.5057471264367","black","experiment","legacy","legacy","legacy","0","uniform","1","undefined","1","right","86","86","86","0","0","86","NA","86","0","0","86","86","86","0","86","0","NA","Sun Oct 25 13:46:23 2020","The main experiment item","yes","SternbergTask.osexp","/Users/Arianna/Desktop","no","mono","no","18","no","white","no","yes","768","legacy","74","11","/Users/Arianna/Downloads/AG-subject-3.csv","legacy","8 9","Lentiform Loewenfeld","3.3.3","0","n","0","right","right","right","right","NA","584","32001","44867","584","NA","NA","NA","2","legacy","2","1024","2","48000","-16","experiment","3","odd","5","614395","611064","612150","3621","156499","612163","NA","592295","124497","3636","616409","616995","613178","48529","616409","NA","NA","Sternberg Task","83","69731","87","yes","1024"
"95.45454545454545","95.45454545454545","800.375","800.375","black","experiment","legacy","legacy","legacy","0","uniform","1","undefined","1","left","87","87","87","0","0","87","NA","87","0","0","87","87","87","0","87","0","NA","Sun Oct 25 13:46:23 2020","The main experiment item","yes","SternbergTask.osexp","/Users/Arianna/Desktop","no","mono","no","18","no","white","no","yes","768","legacy","75","11","/Users/Arianna/Downloads/AG-subject-3.csv","legacy","6 7 9 3 1 2","Lentiform Loewenfeld","3.3.3","1","y","0","left","right","right","left","NA","702","32001","44867","702","NA","NA","NA","2","legacy","6","1024","2","48000","-16","experiment","3","odd","6","620352","617021","618107","3621","156499","618120","NA","592295","124497","3636","622366","623070","619135","48529","622366","NA","NA","Sternberg Task","84","70433","88","yes","1024"
"95.50561797752809","95.50561797752809","801.3595505617977","801.3595505617977","black","experiment","legacy","legacy","legacy","0","uniform","1","undefined","1","right","88","88","88","0","0","88","NA","88","0","0","88","88","88","0","88","0","NA","Sun Oct 25 13:46:23 2020","The main experiment item","yes","SternbergTask.osexp","/Users/Arianna/Desktop","no","mono","no","18","no","white","no","yes","768","legacy","76","11","/Users/Arianna/Downloads/AG-subject-3.csv","legacy","7 4 2 8 1 9","Lentiform Loewenfeld","3.3.3","0","n","0","right","right","right","right","NA","888","32001","44867","888","NA","NA","NA","2","legacy","6","1024","2","48000","-16","experiment","3","odd","5","626424","623092","624179","3621","156499","624192","NA","592295","124497","3636","628438","629328","625207","48529","628438","NA","NA","Sternberg Task","85","71321","89","yes","1024"
"95.55555555555556","95.55555555555556","804.9666666666667","804.9666666666667","black","experiment","legacy","legacy","legacy","0","uniform","1","undefined","1","right","89","89","89","0","0","89","NA","89","0","0","89","89","89","0","89","0","NA","Sun Oct 25 13:46:23 2020","The main experiment item","yes","SternbergTask.osexp","/Users/Arianna/Desktop","no","mono","no","18","no","white","no","yes","768","legacy","77","11","/Users/Arianna/Downloads/AG-subject-3.csv","legacy","4 2 7 6 1 3","Lentiform Loewenfeld","3.3.3","0","n","0","right","right","right","right","NA","1126","32001","44867","1126","NA","NA","NA","2","legacy","6","1024","2","48000","-16","experiment","3","odd","8","632684","629352","630439","3621","156499","630452","NA","592295","124497","3636","634698","635825","631467","48529","634697","NA","NA","Sternberg Task","86","72447","90","yes","1024"
"95.6043956043956","95.6043956043956","802.8021978021978","802.8021978021978","black","experiment","legacy","legacy","legacy","0","uniform","1","undefined","1","left","90","90","90","0","0","90","NA","90","0","0","90","90","90","0","90","0","NA","Sun Oct 25 13:46:23 2020","The main experiment item","yes","SternbergTask.osexp","/Users/Arianna/Desktop","no","mono","no","18","no","white","no","yes","768","legacy","78","11","/Users/Arianna/Downloads/AG-subject-3.csv","legacy","9 5 3 8 4","Lentiform Loewenfeld","3.3.3","1","y","0","left","right","right","left","NA","608","32001","44867","608","NA","NA","NA","2","legacy","5","1024","2","48000","-16","experiment","3","odd","9","639183","635851","636938","3621","156499","636951","NA","592295","124497","3636","641197","641807","637966","48529","641196","NA","NA","Sternberg Task","87","73055","91","yes","1024"
"95.65217391304348","95.65217391304348","804.8695652173913","804.8695652173913","black","experiment","legacy","legacy","legacy","0","uniform","1","undefined","1","right","91","91","91","0","0","91","NA","91","0","0","91","91","91","0","91","0","NA","Sun Oct 25 13:46:23 2020","The main experiment item","yes","SternbergTask.osexp","/Users/Arianna/Desktop","no","mono","no","18","no","white","no","yes","768","legacy","79","11","/Users/Arianna/Downloads/AG-subject-3.csv","legacy","1 5 3 2 8","Lentiform Loewenfeld","3.3.3","0","n","0","right","right","right","right","NA","993","32001","44867","993","NA","NA","NA","2","legacy","5","1024","2","48000","-16","experiment","3","odd","4","645161","641833","642918","3621","156499","642931","NA","592295","124497","3636","647175","648170","643945","48529","647175","NA","NA","Sternberg Task","88","74048","92","yes","1024"
"95.6989247311828","95.6989247311828","802.5698924731183","802.5698924731183","black","experiment","legacy","legacy","legacy","0","uniform","1","undefined","1","left","92","92","92","0","0","92","NA","92","0","0","92","92","92","0","92","0","NA","Sun Oct 25 13:46:23 2020","The main experiment item","yes","SternbergTask.osexp","/Users/Arianna/Desktop","no","mono","no","18","no","white","no","yes","768","legacy","80","11","/Users/Arianna/Downloads/AG-subject-3.csv","legacy","8 9 5 6 7","Lentiform Loewenfeld","3.3.3","1","y","0","left","right","right","left","NA","591","32001","44867","591","NA","NA","NA","2","legacy","5","1024","2","48000","-16","experiment","3","odd","8","651524","648192","649279","3621","156499","649292","NA","592295","124497","3636","653538","654130","650307","48529","653538","NA","NA","Sternberg Task","89","74639","93","yes","1024"
"95.74468085106383","95.74468085106383","801.5531914893617","801.5531914893617","black","experiment","legacy","legacy","legacy","0","uniform","1","undefined","1","right","93","93","93","0","0","93","NA","93","0","0","93","93","93","0","93","0","NA","Sun Oct 25 13:46:23 2020","The main experiment item","yes","SternbergTask.osexp","/Users/Arianna/Desktop","no","mono","no","18","no","white","no","yes","768","legacy","81","11","/Users/Arianna/Downloads/AG-subject-3.csv","legacy","3 9 1","Lentiform Loewenfeld","3.3.3","0","n","0","right","right","right","right","NA","707","32001","44867","707","NA","NA","NA","2","legacy","3","1024","2","48000","-16","experiment","3","odd","7","657483","654153","655238","3621","156499","655251","NA","592295","124497","3636","659497","660206","656266","48529","659497","NA","NA","Sternberg Task","90","75346","94","yes","1024"
"95.78947368421052","95.78947368421052","805.0631578947368","805.0631578947368","black","experiment","legacy","legacy","legacy","0","uniform","1","undefined","1","right","94","94","94","0","0","94","NA","94","0","0","94","94","94","0","94","0","NA","Sun Oct 25 13:46:23 2020","The main experiment item","yes","SternbergTask.osexp","/Users/Arianna/Desktop","no","mono","no","18","no","white","no","yes","768","legacy","82","11","/Users/Arianna/Downloads/AG-subject-3.csv","legacy","7 9 1 6","Lentiform Loewenfeld","3.3.3","0","n","0","right","right","right","right","NA","1135","32001","44867","1135","NA","NA","NA","2","legacy","4","1024","2","48000","-16","experiment","3","odd","4","663560","660229","661314","3621","156499","661328","NA","592295","124497","3636","665574","666711","662343","48529","665574","NA","NA","Sternberg Task","91","76481","95","yes","1024"
"95.83333333333333","95.83333333333333","804.75","804.75","black","experiment","legacy","legacy","legacy","0","uniform","1","undefined","1","right","95","95","95","0","0","95","NA","95","0","0","95","95","95","0","95","0","NA","Sun Oct 25 13:46:23 2020","The main experiment item","yes","SternbergTask.osexp","/Users/Arianna/Desktop","no","mono","no","18","no","white","no","yes","768","legacy","83","11","/Users/Arianna/Downloads/AG-subject-3.csv","legacy","1 3 2 6 9","Lentiform Loewenfeld","3.3.3","0","n","0","right","right","right","right","NA","775","32001","44867","775","NA","NA","NA","2","legacy","5","1024","2","48000","-16","experiment","3","odd","5","670068","666738","667823","3621","156499","667836","NA","592295","124497","3636","672082","672858","668851","48529","672082","NA","NA","Sternberg Task","92","77256","96","yes","1024"
"95.87628865979381","95.87628865979381","804.5567010309278","804.5567010309278","black","experiment","legacy","legacy","legacy","0","uniform","1","undefined","1","right","96","96","96","0","0","96","NA","96","0","0","96","96","96","0","96","0","NA","Sun Oct 25 13:46:23 2020","The main experiment item","yes","SternbergTask.osexp","/Users/Arianna/Desktop","no","mono","no","18","no","white","no","yes","768","legacy","84","11","/Users/Arianna/Downloads/AG-subject-3.csv","legacy","4 8 1 2","Lentiform Loewenfeld","3.3.3","0","n","0","right","right","right","right","NA","786","32001","44867","786","NA","NA","NA","2","legacy","4","1024","2","48000","-16","experiment","3","odd","7","676206","672872","673961","3621","156499","673974","NA","592295","124497","3636","678221","679008","674989","48529","678221","NA","NA","Sternberg Task","93","78042","97","yes","1024"
"95.91836734693878","95.91836734693878","805.234693877551","805.234693877551","black","experiment","legacy","legacy","legacy","0","uniform","1","undefined","1","left","97","97","97","0","0","97","NA","97","0","0","97","97","97","0","97","0","NA","Sun Oct 25 13:46:23 2020","The main experiment item","yes","SternbergTask.osexp","/Users/Arianna/Desktop","no","mono","no","18","no","white","no","yes","768","legacy","85","11","/Users/Arianna/Downloads/AG-subject-3.csv","legacy","2 8 5 1","Lentiform Loewenfeld","3.3.3","4","y","0","left","right","right","left","NA","871","32001","44867","871","NA","NA","NA","2","legacy","4","1024","2","48000","-16","experiment","3","odd","1","682368","679034","680122","3621","156499","680135","NA","592295","124497","3636","684382","685254","681151","48529","684382","NA","NA","Sternberg Task","94","78913","98","yes","1024"
"95.95959595959596","95.95959595959596","803.0808080808081","803.0808080808081","black","experiment","legacy","legacy","legacy","0","uniform","1","undefined","1","left","98","98","98","0","0","98","NA","98","0","0","98","98","98","0","98","0","NA","Sun Oct 25 13:46:23 2020","The main experiment item","yes","SternbergTask.osexp","/Users/Arianna/Desktop","no","mono","no","18","no","white","no","yes","768","legacy","86","11","/Users/Arianna/Downloads/AG-subject-3.csv","legacy","4 6 2 5 1","Lentiform Loewenfeld","3.3.3","5","y","0","left","right","right","left","NA","592","32001","44867","592","NA","NA","NA","2","legacy","5","1024","2","48000","-16","experiment","3","odd","1","688609","685277","686364","3621","156499","686377","NA","592295","124497","3636","690623","691216","687392","48529","690622","NA","NA","Sternberg Task","95","79505","99","yes","1024"
"96","96","802.69","802.69","black","experiment","legacy","legacy","legacy","0","uniform","1","undefined","1","left","99","99","99","0","0","99","NA","99","0","0","99","99","99","0","99","0","NA","Sun Oct 25 13:46:23 2020","The main experiment item","yes","SternbergTask.osexp","/Users/Arianna/Desktop","no","mono","no","18","no","white","no","yes","768","legacy","87","11","/Users/Arianna/Downloads/AG-subject-3.csv","legacy","3 4 9 6 2 9","Lentiform Loewenfeld","3.3.3","5","y","0","left","right","right","left","NA","764","32001","44867","764","NA","NA","NA","2","legacy","6","1024","2","48000","-16","experiment","3","odd","2","694571","691240","692325","3621","156499","692338","NA","592295","124497","3636","696585","697350","693354","48529","696585","NA","NA","Sternberg Task","96","80269","100","yes","1024"
"96.03960396039604","96.03960396039604","801.8217821782179","801.8217821782179","black","experiment","legacy","legacy","legacy","0","uniform","1","undefined","1","right","100","100","100","0","0","100","NA","100","0","0","100","100","100","0","100","0","NA","Sun Oct 25 13:46:23 2020","The main experiment item","yes","SternbergTask.osexp","/Users/Arianna/Desktop","no","mono","no","18","no","white","no","yes","768","legacy","88","11","/Users/Arianna/Downloads/AG-subject-3.csv","legacy","6 8 4","Lentiform Loewenfeld","3.3.3","0","n","0","right","right","right","right","NA","715","32001","44867","715","NA","NA","NA","2","legacy","3","1024","2","48000","-16","experiment","3","odd","1","700705","697373","698461","3621","156499","698473","NA","592295","124497","3636","702719","703436","699488","48529","702719","NA","NA","Sternberg Task","97","80984","101","yes","1024"
"96.07843137254902","96.07843137254902","802.2549019607843","802.2549019607843","black","experiment","legacy","legacy","legacy","0","uniform","1","undefined","1","right","101","101","101","0","0","101","NA","101","0","0","101","101","101","0","101","0","NA","Sun Oct 25 13:46:23 2020","The main experiment item","yes","SternbergTask.osexp","/Users/Arianna/Desktop","no","mono","no","18","no","white","no","yes","768","legacy","89","11","/Users/Arianna/Downloads/AG-subject-3.csv","legacy","8 5 7 3 6","Lentiform Loewenfeld","3.3.3","0","n","0","right","right","right","right","NA","846","32001","44867","846","NA","NA","NA","2","legacy","5","1024","2","48000","-16","experiment","3","odd","9","706792","703464","704550","3621","156499","704563","NA","592295","124497","3636","708806","709654","705575","48529","708806","NA","NA","Sternberg Task","98","81830","102","yes","1024"
"96.11650485436893","96.11650485436893","800.4271844660194","800.4271844660194","black","experiment","legacy","legacy","legacy","0","uniform","1","undefined","1","right","102","102","102","0","0","102","NA","102","0","0","102","102","102","0","102","0","NA","Sun Oct 25 13:46:23 2020","The main experiment item","yes","SternbergTask.osexp","/Users/Arianna/Desktop","no","mono","no","18","no","white","no","yes","768","legacy","90","11","/Users/Arianna/Downloads/AG-subject-3.csv","legacy","7 8 6 1","Lentiform Loewenfeld","3.3.3","0","n","0","right","right","right","right","NA","614","32001","44867","614","NA","NA","NA","2","legacy","4","1024","2","48000","-16","experiment","3","odd","3","713010","709681","710766","3621","156499","710779","NA","592295","124497","3636","715024","715640","711794","48529","715024","NA","NA","Sternberg Task","99","82444","103","yes","1024"
"96.15384615384616","96.15384615384616","802.0192307692307","802.0192307692307","black","experiment","legacy","legacy","legacy","0","uniform","1","undefined","1","right","103","103","103","0","0","103","NA","103","0","0","103","103","103","0","103","0","NA","Sun Oct 25 13:46:23 2020","The main experiment item","yes","SternbergTask.osexp","/Users/Arianna/Desktop","no","mono","no","18","no","white","no","yes","768","legacy","91","11","/Users/Arianna/Downloads/AG-subject-3.csv","legacy","1 7 5 2 9","Lentiform Loewenfeld","3.3.3","0","n","0","right","right","right","right","NA","966","32001","44867","966","NA","NA","NA","2","legacy","5","1024","2","48000","-16","experiment","3","odd","3","719000","715666","716756","3621","156499","716770","NA","592295","124497","3636","721014","721982","717784","48529","721013","NA","NA","Sternberg Task","100","83410","104","yes","1024"
"96.19047619047619","96.19047619047619","800.5904761904762","800.5904761904762","black","experiment","legacy","legacy","legacy","0","uniform","1","undefined","1","right","104","104","104","0","0","104","NA","104","0","0","104","104","104","0","104","0","NA","Sun Oct 25 13:46:23 2020","The main experiment item","yes","SternbergTask.osexp","/Users/Arianna/Desktop","no","mono","no","18","no","white","no","yes","768","legacy","92","11","/Users/Arianna/Downloads/AG-subject-3.csv","legacy","9 8 2 7 4","Lentiform Loewenfeld","3.3.3","0","n","0","right","right","right","right","NA","652","32001","44867","652","NA","NA","NA","2","legacy","5","1024","2","48000","-16","experiment","3","odd","5","725335","722006","723092","3621","156499","723105","NA","592295","124497","3636","727349","728003","724118","48529","727349","NA","NA","Sternberg Task","101","84062","105","yes","1024"
"96.22641509433963","96.22641509433963","797.8679245283018","797.8679245283018","black","experiment","legacy","legacy","legacy","0","uniform","1","undefined","1","left","105","105","105","0","0","105","NA","105","0","0","105","105","105","0","105","0","NA","Sun Oct 25 13:46:23 2020","The main experiment item","yes","SternbergTask.osexp","/Users/Arianna/Desktop","no","mono","no","18","no","white","no","yes","768","legacy","93","11","/Users/Arianna/Downloads/AG-subject-3.csv","legacy","4 6 5 8","Lentiform Loewenfeld","3.3.3","1","y","0","left","right","right","left","NA","512","32001","44867","512","NA","NA","NA","2","legacy","4","1024","2","48000","-16","experiment","3","odd","4","731358","728026","729112","3621","156499","729125","NA","592295","124497","3636","733372","733886","730141","48529","733372","NA","NA","Sternberg Task","102","84574","106","yes","1024"
"96.26168224299066","96.26168224299066","795.8598130841121","795.8598130841121","black","experiment","legacy","legacy","legacy","0","uniform","1","undefined","1","left","106","106","106","0","0","106","NA","106","0","0","106","106","106","0","106","0","NA","Sun Oct 25 13:46:23 2020","The main experiment item","yes","SternbergTask.osexp","/Users/Arianna/Desktop","no","mono","no","18","no","white","no","yes","768","legacy","94","11","/Users/Arianna/Downloads/AG-subject-3.csv","legacy","9 3 8 2 1 4","Lentiform Loewenfeld","3.3.3","3","y","0","left","right","right","left","NA","583","32001","44867","583","NA","NA","NA","2","legacy","6","1024","2","48000","-16","experiment","3","odd","8","737242","733913","734998","3621","156499","735010","NA","592295","124497","3636","739256","739840","736025","48529","739255","NA","NA","Sternberg Task","103","85157","107","yes","1024"
"96.29629629629629","96.29629629629629","797.1481481481482","797.1481481481482","black","experiment","legacy","legacy","legacy","0","uniform","1","undefined","1","left","107","107","107","0","0","107","NA","107","0","0","107","107","107","0","107","0","NA","Sun Oct 25 13:46:23 2020","The main experiment item","yes","SternbergTask.osexp","/Users/Arianna/Desktop","no","mono","no","18","no","white","no","yes","768","legacy","95","11","/Users/Arianna/Downloads/AG-subject-3.csv","legacy","3 2 1 4 7","Lentiform Loewenfeld","3.3.3","2","y","0","left","right","right","left","NA","935","32001","44867","935","NA","NA","NA","2","legacy","5","1024","2","48000","-16","experiment","3","odd","2","743198","739867","740953","3621","156499","740966","NA","592295","124497","3636","745212","746149","741981","48529","745212","NA","NA","Sternberg Task","104","86092","108","yes","1024"
"96.3302752293578","96.3302752293578","797.9174311926605","797.9174311926605","black","experiment","legacy","legacy","legacy","0","uniform","1","undefined","1","right","108","108","108","0","0","108","NA","108","0","0","108","108","108","0","108","0","NA","Sun Oct 25 13:46:23 2020","The main experiment item","yes","SternbergTask.osexp","/Users/Arianna/Desktop","no","mono","no","18","no","white","no","yes","768","legacy","96","11","/Users/Arianna/Downloads/AG-subject-3.csv","legacy","9","Lentiform Loewenfeld","3.3.3","0","n","0","right","right","right","right","NA","881","32001","44867","881","NA","NA","NA","2","legacy","1","1024","2","48000","-16","experiment","3","odd","6","749502","746172","747256","3621","156499","747270","NA","592295","124497","3636","751516","752398","748285","48529","751515","NA","NA","Sternberg Task","105","86973","109","yes","1024"
"96.36363636363636","96.36363636363636","796.290909090909","796.290909090909","black","experiment","legacy","legacy","legacy","0","uniform","1","undefined","1","right","109","109","109","0","0","109","NA","109","0","0","109","109","109","0","109","0","NA","Sun Oct 25 13:46:23 2020","The main experiment item","yes","SternbergTask.osexp","/Users/Arianna/Desktop","no","mono","no","18","no","white","no","yes","768","legacy","97","11","/Users/Arianna/Downloads/AG-subject-3.csv","legacy","1","Lentiform Loewenfeld","3.3.3","0","n","0","right","right","right","right","NA","619","32001","44867","619","NA","NA","NA","2","legacy","1","1024","2","48000","-16","experiment","3","odd","7","755756","752421","753511","3621","156499","753524","NA","592295","124497","3636","757770","758390","754539","48529","757770","NA","NA","Sternberg Task","106","87592","110","yes","1024"
"96.3963963963964","96.3963963963964","798.2252252252252","798.2252252252252","black","experiment","legacy","legacy","legacy","0","uniform","1","undefined","1","left","110","110","110","0","0","110","NA","110","0","0","110","110","110","0","110","0","NA","Sun Oct 25 13:46:23 2020","The main experiment item","yes","SternbergTask.osexp","/Users/Arianna/Desktop","no","mono","no","18","no","white","no","yes","768","legacy","98","11","/Users/Arianna/Downloads/AG-subject-3.csv","legacy","6 8 9 3 4 9","Lentiform Loewenfeld","3.3.3","5","y","0","left","right","right","left","NA","1011","32001","44867","1011","NA","NA","NA","2","legacy","6","1024","2","48000","-16","experiment","3","odd","4","761743","758414","759498","3621","156499","759511","NA","592295","124497","3636","763757","764770","760526","48529","763757","NA","NA","Sternberg Task","107","88603","111","yes","1024"
"96.42857142857143","96.42857142857143","798.6696428571429","798.6696428571429","black","experiment","legacy","legacy","legacy","0","uniform","1","undefined","1","right","111","111","111","0","0","111","NA","111","0","0","111","111","111","0","111","0","NA","Sun Oct 25 13:46:23 2020","The main experiment item","yes","SternbergTask.osexp","/Users/Arianna/Desktop","no","mono","no","18","no","white","no","yes","768","legacy","99","11","/Users/Arianna/Downloads/AG-subject-3.csv","legacy","6 3 1 7 9 8","Lentiform Loewenfeld","3.3.3","0","n","0","right","right","right","right","NA","848","32001","44867","848","NA","NA","NA","2","legacy","6","1024","2","48000","-16","experiment","3","odd","4","768126","764796","765881","3621","156499","765894","NA","592295","124497","3636","770140","770990","766909","48529","770140","NA","NA","Sternberg Task","108","89451","112","yes","1024"
"96.46017699115045","96.46017699115045","795.7522123893805","795.7522123893805","black","experiment","legacy","legacy","legacy","0","uniform","1","undefined","1","left","112","112","112","0","0","112","NA","112","0","0","112","112","112","0","112","0","NA","Sun Oct 25 13:46:23 2020","The main experiment item","yes","SternbergTask.osexp","/Users/Arianna/Desktop","no","mono","no","18","no","white","no","yes","768","legacy","100","11","/Users/Arianna/Downloads/AG-subject-3.csv","legacy","4 9 7 8 5 3","Lentiform Loewenfeld","3.3.3","4","y","0","left","right","right","left","NA","469","32001","44867","469","NA","NA","NA","2","legacy","6","1024","2","48000","-16","experiment","3","odd","8","774348","771016","772103","3621","156499","772116","NA","592295","124497","3636","776362","776833","773131","48529","776362","NA","NA","Sternberg Task","109","89920","113","yes","1024"
"96.49122807017544","96.49122807017544","793.9473684210526","793.9473684210526","black","experiment","legacy","legacy","legacy","0","uniform","1","undefined","1","right","113","113","113","0","0","113","NA","113","0","0","113","113","113","0","113","0","NA","Sun Oct 25 13:46:23 2020","The main experiment item","yes","SternbergTask.osexp","/Users/Arianna/Desktop","no","mono","no","18","no","white","no","yes","768","legacy","101","11","/Users/Arianna/Downloads/AG-subject-3.csv","legacy","3 4 9 6 7 8","Lentiform Loewenfeld","3.3.3","0","n","0","right","right","right","right","NA","590","32001","44867","590","NA","NA","NA","2","legacy","6","1024","2","48000","-16","experiment","3","odd","2","780191","776859","777946","3621","156499","777959","NA","592295","124497","3636","782205","782797","778974","48529","782205","NA","NA","Sternberg Task","110","90510","114","yes","1024"
"96.52173913043478","96.52173913043478","792.2434782608696","792.2434782608696","black","experiment","legacy","legacy","legacy","0","uniform","1","undefined","1","right","114","114","114","0","0","114","NA","114","0","0","114","114","114","0","114","0","NA","Sun Oct 25 13:46:23 2020","The main experiment item","yes","SternbergTask.osexp","/Users/Arianna/Desktop","no","mono","no","18","no","white","no","yes","768","legacy","102","11","/Users/Arianna/Downloads/AG-subject-3.csv","legacy","5 7 3","Lentiform Loewenfeld","3.3.3","0","n","0","right","right","right","right","NA","598","32001","44867","598","NA","NA","NA","2","legacy","3","1024","2","48000","-16","experiment","3","odd","9","786155","782825","783910","3621","156499","783923","NA","592295","124497","3636","788169","788769","784938","48529","788169","NA","NA","Sternberg Task","111","91108","115","yes","1024"
