condition,stimulus,acc,accuracy,average_response_time,avg_rt,background,canvas_backend,clock_backend,color_backend,compensation,coordinates,correct,correct_instructions1,correct_keyboard_response,correct_response,count_Block1,count_Block2,count_Block3,count_Faster,count_ISI,count_Sequence,count_errorFeedback,count_experiment,count_finish,count_fixation,count_instructions1,count_instructions2,count_instructions3,count_keyboard_response,count_logger,count_stimulus,datetime,deadline,description,disable_garbage_collection,experiment_file,experiment_path,font_bold,font_family,font_italic,font_size,font_underline,foreground,form_clicks,fullscreen,height,keyboard_backend,live_row,live_row_Block1,logfile,mouse_backend,opensesame_codename,opensesame_version,repeat_cycle,response,response_finish,response_instructions1,response_instructions2,response_instructions3,response_keyboard_response,response_time,response_time_finish,response_time_instructions1,response_time_instructions2,response_time_instructions3,response_time_keyboard_response,round_decimals,sampler_backend,sound_buf_size,sound_channels,sound_freq,sound_sample_size,start,subject_nr,subject_parity,time_Block1,time_Block2,time_Block3,time_Faster,time_ISI,time_Sequence,time_errorFeedback,time_experiment,time_finish,time_fixation,time_instructions1,time_instructions2,time_instructions3,time_keyboard_response,time_logger,time_stimulus,title,total_correct,total_response_time,total_responses,uniform_coordinates,width
Incongruent,HHSHH,0,0,1049,1049,black,legacy,legacy,legacy,0,uniform,0,undefined,0,s,0,0,0,0,0,0,0,0,0,0,0,0,0,0,0,0,9/9/18 20:05,1500,The main experiment item,yes,FlankerTask.osexp,E:/,no,mono,no,18,no,white,no,yes,768,legacy,0,0,E:/kg-subject-2.csv,legacy,Kafkaesque Koffka,3.2.5,0,h,NA,s,NA,NA,h,1049,NA,218280,NA,NA,1049,2,legacy,1024,2,48000,-16,experiment,2,even,221031,NA,NA,NA,NA,221253,NA,2740,NA,221258,2749,NA,NA,221362,222412,221362,Flanker Task,0,1049,1,yes,1024
Congruent,HHHHH,50,50,916.5,916.5,black,legacy,legacy,legacy,0,uniform,1,undefined,1,h,0,0,0,1,1,1,1,0,0,1,0,0,0,1,1,1,9/9/18 20:05,1500,The main experiment item,yes,FlankerTask.osexp,E:/,no,mono,no,18,no,white,no,yes,768,legacy,1,1,E:/kg-subject-2.csv,legacy,Kafkaesque Koffka,3.2.5,0,h,NA,s,NA,NA,h,784,NA,218280,NA,NA,784,2,legacy,1024,2,48000,-16,experiment,2,even,221031,NA,NA,NA,222964,224190,222451,2740,NA,224196,2749,NA,NA,224300,225085,224299,Flanker Task,1,1833,2,yes,1024
Incongruent,HHSHH,66.66666667,66.66666667,952,952,black,legacy,legacy,legacy,0,uniform,1,undefined,1,s,0,0,0,2,2,2,2,0,0,2,0,0,0,2,2,2,9/9/18 20:05,1500,The main experiment item,yes,FlankerTask.osexp,E:/,no,mono,no,18,no,white,no,yes,768,legacy,2,2,E:/kg-subject-2.csv,legacy,Kafkaesque Koffka,3.2.5,0,s,NA,s,NA,NA,s,1023,NA,218280,NA,NA,1023,2,legacy,1024,2,48000,-16,experiment,2,even,221031,NA,NA,NA,225100,226291,222451,2740,NA,226296,2749,NA,NA,226408,227432,226408,Flanker Task,2,2856,3,yes,1024
Incongruent,SSHSS,75,75,862.75,862.75,black,legacy,legacy,legacy,0,uniform,1,undefined,1,h,0,0,0,3,3,3,3,0,0,3,0,0,0,3,3,3,9/9/18 20:05,1500,The main experiment item,yes,FlankerTask.osexp,E:/,no,mono,no,18,no,white,no,yes,768,legacy,3,3,E:/kg-subject-2.csv,legacy,Kafkaesque Koffka,3.2.5,0,h,NA,s,NA,NA,h,595,NA,218280,NA,NA,595,2,legacy,1024,2,48000,-16,experiment,2,even,221031,NA,NA,NA,227447,228639,222451,2740,NA,228644,2749,NA,NA,228757,229354,228757,Flanker Task,3,3451,4,yes,1024
Incongruent,HHSHH,80,80,765,765,black,legacy,legacy,legacy,0,uniform,1,undefined,1,s,0,0,0,4,4,4,4,0,0,4,0,0,0,4,4,4,9/9/18 20:05,1500,The main experiment item,yes,FlankerTask.osexp,E:/,no,mono,no,18,no,white,no,yes,768,legacy,4,4,E:/kg-subject-2.csv,legacy,Kafkaesque Koffka,3.2.5,0,s,NA,s,NA,NA,s,374,NA,218280,NA,NA,374,2,legacy,1024,2,48000,-16,experiment,2,even,221031,NA,NA,NA,229367,230556,222451,2740,NA,230561,2749,NA,NA,230673,231048,230673,Flanker Task,4,3825,5,yes,1024
Congruent,SSSSS,83.33333333,83.33333333,749.1666667,749.1666667,black,legacy,legacy,legacy,0,uniform,1,undefined,1,s,0,0,0,5,5,5,5,0,0,5,0,0,0,5,5,5,9/9/18 20:05,1500,The main experiment item,yes,FlankerTask.osexp,E:/,no,mono,no,18,no,white,no,yes,768,legacy,5,5,E:/kg-subject-2.csv,legacy,Kafkaesque Koffka,3.2.5,0,s,NA,s,NA,NA,s,670,NA,218280,NA,NA,670,2,legacy,1024,2,48000,-16,experiment,2,even,221031,NA,NA,NA,231061,232255,222451,2740,NA,232261,2749,NA,NA,232373,233044,232373,Flanker Task,5,4495,6,yes,1024
Incongruent,HHSHH,85.71428571,85.71428571,721.8571429,721.8571429,black,legacy,legacy,legacy,0,uniform,1,undefined,1,s,0,0,0,6,6,6,6,0,0,6,0,0,0,6,6,6,9/9/18 20:05,1500,The main experiment item,yes,FlankerTask.osexp,E:/,no,mono,no,18,no,white,no,yes,768,legacy,6,6,E:/kg-subject-2.csv,legacy,Kafkaesque Koffka,3.2.5,0,s,NA,s,NA,NA,s,558,NA,218280,NA,NA,558,2,legacy,1024,2,48000,-16,experiment,2,even,221031,NA,NA,NA,233057,234250,222451,2740,NA,234255,2749,NA,NA,234368,234927,234367,Flanker Task,6,5053,7,yes,1024
Congruent,HHHHH,87.5,87.5,683.125,683.125,black,legacy,legacy,legacy,0,uniform,1,undefined,1,h,0,0,0,7,7,7,7,0,0,7,0,0,0,7,7,7,9/9/18 20:05,1500,The main experiment item,yes,FlankerTask.osexp,E:/,no,mono,no,18,no,white,no,yes,768,legacy,7,7,E:/kg-subject-2.csv,legacy,Kafkaesque Koffka,3.2.5,0,h,NA,s,NA,NA,h,412,NA,218280,NA,NA,412,2,legacy,1024,2,48000,-16,experiment,2,even,221031,NA,NA,NA,234941,236149,222451,2740,NA,236154,2749,NA,NA,236258,236671,236258,Flanker Task,7,5465,8,yes,1024
Congruent,HHHHH,88.88888889,88.88888889,731.1111111,731.1111111,black,legacy,legacy,legacy,0,uniform,1,undefined,1,h,0,0,0,8,8,8,8,0,0,8,0,0,0,8,8,8,9/9/18 20:05,1500,The main experiment item,yes,FlankerTask.osexp,E:/,no,mono,no,18,no,white,no,yes,768,legacy,8,8,E:/kg-subject-2.csv,legacy,Kafkaesque Koffka,3.2.5,0,h,NA,s,NA,NA,h,1115,NA,218280,NA,NA,1115,2,legacy,1024,2,48000,-16,experiment,2,even,221031,NA,NA,NA,236686,237885,222451,2740,NA,237890,2749,NA,NA,238003,239119,238003,Flanker Task,8,6580,9,yes,1024
Congruent,HHHHH,90,90,728.8,728.8,black,legacy,legacy,legacy,0,uniform,1,undefined,1,h,0,0,0,9,9,9,9,0,0,9,0,0,0,9,9,9,9/9/18 20:05,1500,The main experiment item,yes,FlankerTask.osexp,E:/,no,mono,no,18,no,white,no,yes,768,legacy,9,9,E:/kg-subject-2.csv,legacy,Kafkaesque Koffka,3.2.5,0,h,NA,s,NA,NA,h,708,NA,218280,NA,NA,708,2,legacy,1024,2,48000,-16,experiment,2,even,221031,NA,NA,NA,239132,240343,222451,2740,NA,240349,2749,NA,NA,240453,241163,240453,Flanker Task,9,7288,10,yes,1024
Congruent,SSSSS,90.90909091,90.90909091,711.2727273,711.2727273,black,legacy,legacy,legacy,0,uniform,1,undefined,1,s,0,0,0,10,10,10,10,0,0,10,0,0,0,10,10,10,9/9/18 20:05,1500,The main experiment item,yes,FlankerTask.osexp,E:/,no,mono,no,18,no,white,no,yes,768,legacy,10,10,E:/kg-subject-2.csv,legacy,Kafkaesque Koffka,3.2.5,0,s,NA,s,NA,NA,s,536,NA,218280,NA,NA,536,2,legacy,1024,2,48000,-16,experiment,2,even,221031,NA,NA,NA,241176,242395,222451,2740,NA,242400,2749,NA,NA,242510,243048,242510,Flanker Task,10,7824,11,yes,1024
Congruent,SSSSS,91.66666667,91.66666667,705.3333333,705.3333333,black,legacy,legacy,legacy,0,uniform,1,undefined,1,s,0,0,0,11,11,11,11,0,0,11,0,0,0,11,11,11,9/9/18 20:05,1500,The main experiment item,yes,FlankerTask.osexp,E:/,no,mono,no,18,no,white,no,yes,768,legacy,11,11,E:/kg-subject-2.csv,legacy,Kafkaesque Koffka,3.2.5,0,s,NA,s,NA,NA,s,640,NA,218280,NA,NA,640,2,legacy,1024,2,48000,-16,experiment,2,even,221031,NA,NA,NA,243061,244261,222451,2740,NA,244266,2749,NA,NA,244378,245019,244378,Flanker Task,11,8464,12,yes,1024
Incongruent,HHSHH,92.30769231,92.30769231,711.3076923,711.3076923,black,legacy,legacy,legacy,0,uniform,1,undefined,1,s,0,0,0,12,12,12,12,0,0,12,0,0,0,12,12,12,9/9/18 20:05,1500,The main experiment item,yes,FlankerTask.osexp,E:/,no,mono,no,18,no,white,no,yes,768,legacy,12,12,E:/kg-subject-2.csv,legacy,Kafkaesque Koffka,3.2.5,0,s,NA,s,NA,NA,s,783,NA,218280,NA,NA,783,2,legacy,1024,2,48000,-16,experiment,2,even,221031,NA,NA,NA,245032,246226,222451,2740,NA,246231,2749,NA,NA,246343,247128,246343,Flanker Task,12,9247,13,yes,1024
Incongruent,SSHSS,85.71428571,85.71428571,694.9285714,694.9285714,black,legacy,legacy,legacy,0,uniform,0,undefined,0,h,0,0,0,13,13,13,13,0,0,13,0,0,0,13,13,13,9/9/18 20:05,1500,The main experiment item,yes,FlankerTask.osexp,E:/,no,mono,no,18,no,white,no,yes,768,legacy,13,13,E:/kg-subject-2.csv,legacy,Kafkaesque Koffka,3.2.5,0,s,NA,s,NA,NA,s,482,NA,218280,NA,NA,482,2,legacy,1024,2,48000,-16,experiment,2,even,221031,NA,NA,NA,247141,248342,222451,2740,NA,248347,2749,NA,NA,248451,248935,248450,Flanker Task,12,9729,14,yes,1024
Incongruent,SSHSS,86.66666667,86.66666667,697.9333333,697.9333333,black,legacy,legacy,legacy,0,uniform,1,undefined,1,h,0,0,0,14,14,14,14,0,0,14,0,0,0,14,14,14,9/9/18 20:05,1500,The main experiment item,yes,FlankerTask.osexp,E:/,no,mono,no,18,no,white,no,yes,768,legacy,14,14,E:/kg-subject-2.csv,legacy,Kafkaesque Koffka,3.2.5,0,h,NA,s,NA,NA,h,740,NA,218280,NA,NA,740,2,legacy,1024,2,48000,-16,experiment,2,even,221031,NA,NA,NA,249460,250683,248948,2740,NA,250688,2749,NA,NA,250793,251534,250792,Flanker Task,13,10469,15,yes,1024
Congruent,SSSSS,87.5,87.5,704.5,704.5,black,legacy,legacy,legacy,0,uniform,1,undefined,1,s,0,0,0,15,15,15,15,0,0,15,0,0,0,15,15,15,9/9/18 20:05,1500,The main experiment item,yes,FlankerTask.osexp,E:/,no,mono,no,18,no,white,no,yes,768,legacy,15,15,E:/kg-subject-2.csv,legacy,Kafkaesque Koffka,3.2.5,0,s,NA,s,NA,NA,s,803,NA,218280,NA,NA,803,2,legacy,1024,2,48000,-16,experiment,2,even,221031,NA,NA,NA,251550,252748,248948,2740,NA,252753,2749,NA,NA,252864,253669,252864,Flanker Task,14,11272,16,yes,1024
Incongruent,SSHSS,88.23529412,88.23529412,701.0588235,701.0588235,black,legacy,legacy,legacy,0,uniform,1,undefined,1,h,0,0,0,16,16,16,16,0,0,16,0,0,0,16,16,16,9/9/18 20:05,1500,The main experiment item,yes,FlankerTask.osexp,E:/,no,mono,no,18,no,white,no,yes,768,legacy,16,16,E:/kg-subject-2.csv,legacy,Kafkaesque Koffka,3.2.5,0,h,NA,s,NA,NA,h,646,NA,218280,NA,NA,646,2,legacy,1024,2,48000,-16,experiment,2,even,221031,NA,NA,NA,253682,254894,248948,2740,NA,254899,2749,NA,NA,255003,255651,255002,Flanker Task,15,11918,17,yes,1024
Congruent,SSSSS,88.88888889,88.88888889,708.7222222,708.7222222,black,legacy,legacy,legacy,0,uniform,1,undefined,1,s,0,0,0,17,17,17,17,0,0,17,0,0,0,17,17,17,9/9/18 20:05,1500,The main experiment item,yes,FlankerTask.osexp,E:/,no,mono,no,18,no,white,no,yes,768,legacy,17,17,E:/kg-subject-2.csv,legacy,Kafkaesque Koffka,3.2.5,0,s,NA,s,NA,NA,s,839,NA,218280,NA,NA,839,2,legacy,1024,2,48000,-16,experiment,2,even,221031,NA,NA,NA,255664,256889,248948,2740,NA,256895,2749,NA,NA,257007,257848,257007,Flanker Task,16,12757,18,yes,1024
Congruent,SSSSS,89.47368421,89.47368421,703.5263158,703.5263158,black,legacy,legacy,legacy,0,uniform,1,undefined,1,s,0,0,0,18,18,18,18,0,0,18,0,0,0,18,18,18,9/9/18 20:05,1500,The main experiment item,yes,FlankerTask.osexp,E:/,no,mono,no,18,no,white,no,yes,768,legacy,18,18,E:/kg-subject-2.csv,legacy,Kafkaesque Koffka,3.2.5,0,s,NA,s,NA,NA,s,610,NA,218280,NA,NA,610,2,legacy,1024,2,48000,-16,experiment,2,even,221031,NA,NA,NA,257861,259071,248948,2740,NA,259077,2749,NA,NA,259183,259794,259182,Flanker Task,17,13367,19,yes,1024
Incongruent,SSHSS,90,90,693.7,693.7,black,legacy,legacy,legacy,0,uniform,1,undefined,1,h,0,0,0,19,19,19,19,0,0,19,0,0,0,19,19,19,9/9/18 20:05,1500,The main experiment item,yes,FlankerTask.osexp,E:/,no,mono,no,18,no,white,no,yes,768,legacy,19,19,E:/kg-subject-2.csv,legacy,Kafkaesque Koffka,3.2.5,0,h,NA,s,NA,NA,h,507,NA,218280,NA,NA,507,2,legacy,1024,2,48000,-16,experiment,2,even,221031,NA,NA,NA,259808,261022,248948,2740,NA,261027,2749,NA,NA,261131,261640,261130,Flanker Task,18,13874,20,yes,1024
Congruent,HHHHH,90.47619048,90.47619048,698.952381,698.952381,black,legacy,legacy,legacy,0,uniform,1,undefined,1,h,0,0,0,20,20,20,20,0,0,20,0,0,0,20,20,20,9/9/18 20:05,1500,The main experiment item,yes,FlankerTask.osexp,E:/,no,mono,no,18,no,white,no,yes,768,legacy,20,20,E:/kg-subject-2.csv,legacy,Kafkaesque Koffka,3.2.5,0,h,NA,s,NA,NA,h,804,NA,218280,NA,NA,804,2,legacy,1024,2,48000,-16,experiment,2,even,221031,NA,NA,NA,261660,262882,248948,2740,NA,262888,2749,NA,NA,262992,263798,262991,Flanker Task,19,14678,21,yes,1024
Congruent,SSSSS,90.90909091,90.90909091,708.2727273,708.2727273,black,legacy,legacy,legacy,0,uniform,1,undefined,1,s,0,0,0,21,21,21,21,0,0,21,0,0,0,21,21,21,9/9/18 20:05,1500,The main experiment item,yes,FlankerTask.osexp,E:/,no,mono,no,18,no,white,no,yes,768,legacy,21,21,E:/kg-subject-2.csv,legacy,Kafkaesque Koffka,3.2.5,0,s,NA,s,NA,NA,s,904,NA,218280,NA,NA,904,2,legacy,1024,2,48000,-16,experiment,2,even,221031,NA,NA,NA,263819,265008,248948,2740,NA,265013,2749,NA,NA,265127,266032,265126,Flanker Task,20,15582,22,yes,1024
Congruent,SSSSS,91.30434783,91.30434783,698.5652174,698.5652174,black,legacy,legacy,legacy,0,uniform,1,undefined,1,s,0,0,0,22,22,22,22,0,0,22,0,0,0,22,22,22,9/9/18 20:05,1500,The main experiment item,yes,FlankerTask.osexp,E:/,no,mono,no,18,no,white,no,yes,768,legacy,22,22,E:/kg-subject-2.csv,legacy,Kafkaesque Koffka,3.2.5,0,s,NA,s,NA,NA,s,485,NA,218280,NA,NA,485,2,legacy,1024,2,48000,-16,experiment,2,even,221031,NA,NA,NA,266047,267247,248948,2740,NA,267252,2749,NA,NA,267365,267852,267365,Flanker Task,21,16067,23,yes,1024
Congruent,SSSSS,91.66666667,91.66666667,688.5,688.5,black,legacy,legacy,legacy,0,uniform,1,undefined,1,s,0,0,0,23,23,23,23,0,0,23,0,0,0,23,23,23,9/9/18 20:05,1500,The main experiment item,yes,FlankerTask.osexp,E:/,no,mono,no,18,no,white,no,yes,768,legacy,23,23,E:/kg-subject-2.csv,legacy,Kafkaesque Koffka,3.2.5,0,s,NA,s,NA,NA,s,457,NA,218280,NA,NA,457,2,legacy,1024,2,48000,-16,experiment,2,even,221031,NA,NA,NA,267865,269086,248948,2740,NA,269091,2749,NA,NA,269201,269660,269201,Flanker Task,22,16524,24,yes,1024
Congruent,HHHHH,92,92,685.48,685.48,black,legacy,legacy,legacy,0,uniform,1,undefined,1,h,0,0,0,24,24,24,24,0,0,24,0,0,0,24,24,24,9/9/18 20:05,1500,The main experiment item,yes,FlankerTask.osexp,E:/,no,mono,no,18,no,white,no,yes,768,legacy,24,24,E:/kg-subject-2.csv,legacy,Kafkaesque Koffka,3.2.5,0,h,NA,s,NA,NA,h,613,NA,218280,NA,NA,613,2,legacy,1024,2,48000,-16,experiment,2,even,221031,NA,NA,NA,269673,270888,248948,2740,NA,270893,2749,NA,NA,271003,271618,271003,Flanker Task,23,17137,25,yes,1024
Congruent,SSSSS,92.30769231,92.30769231,685,685,black,legacy,legacy,legacy,0,uniform,1,undefined,1,s,0,0,0,25,25,25,25,0,0,25,0,0,0,25,25,25,9/9/18 20:05,1500,The main experiment item,yes,FlankerTask.osexp,E:/,no,mono,no,18,no,white,no,yes,768,legacy,25,25,E:/kg-subject-2.csv,legacy,Kafkaesque Koffka,3.2.5,0,s,NA,s,NA,NA,s,673,NA,218280,NA,NA,673,2,legacy,1024,2,48000,-16,experiment,2,even,221031,NA,NA,NA,271632,272823,248948,2740,NA,272828,2749,NA,NA,272940,273615,272940,Flanker Task,24,17810,26,yes,1024
Congruent,HHHHH,92.59259259,92.59259259,682.7037037,682.7037037,black,legacy,legacy,legacy,0,uniform,1,undefined,1,h,0,0,0,26,26,26,26,0,0,26,0,0,0,26,26,26,9/9/18 20:05,1500,The main experiment item,yes,FlankerTask.osexp,E:/,no,mono,no,18,no,white,no,yes,768,legacy,26,26,E:/kg-subject-2.csv,legacy,Kafkaesque Koffka,3.2.5,0,h,NA,s,NA,NA,h,623,NA,218280,NA,NA,623,2,legacy,1024,2,48000,-16,experiment,2,even,221031,NA,NA,NA,273689,274910,248948,2740,NA,274916,2749,NA,NA,275024,275649,275024,Flanker Task,25,18433,27,yes,1024
Incongruent,HHSHH,92.85714286,92.85714286,676.3928571,676.3928571,black,legacy,legacy,legacy,0,uniform,1,undefined,1,s,0,0,0,27,27,27,27,0,0,27,0,0,0,27,27,27,9/9/18 20:05,1500,The main experiment item,yes,FlankerTask.osexp,E:/,no,mono,no,18,no,white,no,yes,768,legacy,27,27,E:/kg-subject-2.csv,legacy,Kafkaesque Koffka,3.2.5,0,s,NA,s,NA,NA,s,506,NA,218280,NA,NA,506,2,legacy,1024,2,48000,-16,experiment,2,even,221031,NA,NA,NA,275662,276875,248948,2740,NA,276880,2749,NA,NA,276985,277493,276985,Flanker Task,26,18939,28,yes,1024
Incongruent,HHSHH,93.10344828,93.10344828,673.7586207,673.7586207,black,legacy,legacy,legacy,0,uniform,1,undefined,1,s,0,0,0,28,28,28,28,0,0,28,0,0,0,28,28,28,9/9/18 20:05,1500,The main experiment item,yes,FlankerTask.osexp,E:/,no,mono,no,18,no,white,no,yes,768,legacy,28,28,E:/kg-subject-2.csv,legacy,Kafkaesque Koffka,3.2.5,0,s,NA,s,NA,NA,s,600,NA,218280,NA,NA,600,2,legacy,1024,2,48000,-16,experiment,2,even,221031,NA,NA,NA,277507,278703,248948,2740,NA,278709,2749,NA,NA,278813,279415,278813,Flanker Task,27,19539,29,yes,1024
Incongruent,SSHSS,93.33333333,93.33333333,669.8,669.8,black,legacy,legacy,legacy,0,uniform,1,undefined,1,h,0,0,0,29,29,29,29,0,0,29,0,0,0,29,29,29,9/9/18 20:05,1500,The main experiment item,yes,FlankerTask.osexp,E:/,no,mono,no,18,no,white,no,yes,768,legacy,29,29,E:/kg-subject-2.csv,legacy,Kafkaesque Koffka,3.2.5,0,h,NA,s,NA,NA,h,555,NA,218280,NA,NA,555,2,legacy,1024,2,48000,-16,experiment,2,even,221031,NA,NA,NA,279431,280649,248948,2740,NA,280654,2749,NA,NA,280766,281323,280766,Flanker Task,28,20094,30,yes,1024
Congruent,HHHHH,93.5483871,93.5483871,663.2903226,663.2903226,black,legacy,legacy,legacy,0,uniform,1,undefined,1,h,0,0,0,30,30,30,30,0,0,30,0,0,0,30,30,30,9/9/18 20:05,1500,The main experiment item,yes,FlankerTask.osexp,E:/,no,mono,no,18,no,white,no,yes,768,legacy,30,30,E:/kg-subject-2.csv,legacy,Kafkaesque Koffka,3.2.5,0,h,NA,s,NA,NA,h,468,NA,218280,NA,NA,468,2,legacy,1024,2,48000,-16,experiment,2,even,221031,NA,NA,NA,281336,282530,248948,2740,NA,282535,2749,NA,NA,282648,283118,282648,Flanker Task,29,20562,31,yes,1024
Incongruent,SSHSS,90.625,90.625,654.625,654.625,black,legacy,legacy,legacy,0,uniform,0,undefined,0,h,0,0,0,31,31,31,31,0,0,31,0,0,0,31,31,31,9/9/18 20:05,1500,The main experiment item,yes,FlankerTask.osexp,E:/,no,mono,no,18,no,white,no,yes,768,legacy,31,31,E:/kg-subject-2.csv,legacy,Kafkaesque Koffka,3.2.5,0,s,NA,s,NA,NA,s,386,NA,218280,NA,NA,386,2,legacy,1024,2,48000,-16,experiment,2,even,221031,NA,NA,NA,283132,284345,248948,2740,NA,284350,2749,NA,NA,284463,284851,284463,Flanker Task,29,20948,32,yes,1024
Congruent,SSSSS,87.87878788,87.87878788,645.4848485,645.4848485,black,legacy,legacy,legacy,0,uniform,0,undefined,0,s,0,0,0,32,32,32,32,0,0,32,0,0,0,32,32,32,9/9/18 20:05,1500,The main experiment item,yes,FlankerTask.osexp,E:/,no,mono,no,18,no,white,no,yes,768,legacy,32,32,E:/kg-subject-2.csv,legacy,Kafkaesque Koffka,3.2.5,0,h,NA,s,NA,NA,h,353,NA,218280,NA,NA,353,2,legacy,1024,2,48000,-16,experiment,2,even,221031,NA,NA,NA,285374,286585,284865,2740,NA,286590,2749,NA,NA,286694,287049,286693,Flanker Task,29,21301,33,yes,1024
Congruent,SSSSS,88.23529412,88.23529412,655.8235294,655.8235294,black,legacy,legacy,legacy,0,uniform,1,undefined,1,s,0,0,0,33,33,33,33,0,0,33,0,0,0,33,33,33,9/9/18 20:05,1500,The main experiment item,yes,FlankerTask.osexp,E:/,no,mono,no,18,no,white,no,yes,768,legacy,33,33,E:/kg-subject-2.csv,legacy,Kafkaesque Koffka,3.2.5,0,s,NA,s,NA,NA,s,997,NA,218280,NA,NA,997,2,legacy,1024,2,48000,-16,experiment,2,even,221031,NA,NA,NA,287565,288756,287062,2740,NA,288761,2749,NA,NA,288873,289872,288873,Flanker Task,30,22298,34,yes,1024
Congruent,HHHHH,88.57142857,88.57142857,650.9714286,650.9714286,black,legacy,legacy,legacy,0,uniform,1,undefined,1,h,0,0,0,34,34,34,34,0,0,34,0,0,0,34,34,34,9/9/18 20:05,1500,The main experiment item,yes,FlankerTask.osexp,E:/,no,mono,no,18,no,white,no,yes,768,legacy,34,34,E:/kg-subject-2.csv,legacy,Kafkaesque Koffka,3.2.5,0,h,NA,s,NA,NA,h,486,NA,218280,NA,NA,486,2,legacy,1024,2,48000,-16,experiment,2,even,221031,NA,NA,NA,289885,291099,287062,2740,NA,291105,2749,NA,NA,291217,291705,291217,Flanker Task,31,22784,35,yes,1024
Incongruent,SSHSS,88.88888889,88.88888889,652.0833333,652.0833333,black,legacy,legacy,legacy,0,uniform,1,undefined,1,h,0,0,0,35,35,35,35,0,0,35,0,0,0,35,35,35,9/9/18 20:05,1500,The main experiment item,yes,FlankerTask.osexp,E:/,no,mono,no,18,no,white,no,yes,768,legacy,35,35,E:/kg-subject-2.csv,legacy,Kafkaesque Koffka,3.2.5,0,h,NA,s,NA,NA,h,691,NA,218280,NA,NA,691,2,legacy,1024,2,48000,-16,experiment,2,even,221031,NA,NA,NA,291770,292966,287062,2740,NA,292972,2749,NA,NA,293083,293776,293082,Flanker Task,32,23475,36,yes,1024
Congruent,HHHHH,89.18918919,89.18918919,653.6216216,653.6216216,black,legacy,legacy,legacy,0,uniform,1,undefined,1,h,0,0,0,36,36,36,36,0,0,36,0,0,0,36,36,36,9/9/18 20:05,1500,The main experiment item,yes,FlankerTask.osexp,E:/,no,mono,no,18,no,white,no,yes,768,legacy,36,36,E:/kg-subject-2.csv,legacy,Kafkaesque Koffka,3.2.5,0,h,NA,s,NA,NA,h,709,NA,218280,NA,NA,709,2,legacy,1024,2,48000,-16,experiment,2,even,221031,NA,NA,NA,293792,294996,287062,2740,NA,295002,2749,NA,NA,295114,295825,295114,Flanker Task,33,24184,37,yes,1024
Incongruent,SSHSS,89.47368421,89.47368421,647.6578947,647.6578947,black,legacy,legacy,legacy,0,uniform,1,undefined,1,h,0,0,0,37,37,37,37,0,0,37,0,0,0,37,37,37,9/9/18 20:05,1500,The main experiment item,yes,FlankerTask.osexp,E:/,no,mono,no,18,no,white,no,yes,768,legacy,37,37,E:/kg-subject-2.csv,legacy,Kafkaesque Koffka,3.2.5,0,h,NA,s,NA,NA,h,427,NA,218280,NA,NA,427,2,legacy,1024,2,48000,-16,experiment,2,even,221031,NA,NA,NA,295839,297056,287062,2740,NA,297061,2749,NA,NA,297166,297595,297165,Flanker Task,34,24611,38,yes,1024
Incongruent,HHSHH,87.17948718,87.17948718,642.7692308,642.7692308,black,legacy,legacy,legacy,0,uniform,0,undefined,0,s,0,0,0,38,38,38,38,0,0,38,0,0,0,38,38,38,9/9/18 20:05,1500,The main experiment item,yes,FlankerTask.osexp,E:/,no,mono,no,18,no,white,no,yes,768,legacy,38,38,E:/kg-subject-2.csv,legacy,Kafkaesque Koffka,3.2.5,0,h,NA,s,NA,NA,h,457,NA,218280,NA,NA,457,2,legacy,1024,2,48000,-16,experiment,2,even,221031,NA,NA,NA,297609,298821,287062,2740,NA,298827,2749,NA,NA,298931,299390,298931,Flanker Task,34,25068,39,yes,1024
Congruent,HHHHH,87.5,87.5,646.75,646.75,black,legacy,legacy,legacy,0,uniform,1,undefined,1,h,0,0,0,39,39,39,39,0,0,39,0,0,0,39,39,39,9/9/18 20:05,1500,The main experiment item,yes,FlankerTask.osexp,E:/,no,mono,no,18,no,white,no,yes,768,legacy,39,39,E:/kg-subject-2.csv,legacy,Kafkaesque Koffka,3.2.5,0,h,NA,s,NA,NA,h,802,NA,218280,NA,NA,802,2,legacy,1024,2,48000,-16,experiment,2,even,221031,NA,NA,NA,299916,301129,299404,2740,NA,301134,2749,NA,NA,301247,302051,301247,Flanker Task,35,25870,40,yes,1024
Incongruent,HHSHH,87.80487805,87.80487805,646.2682927,646.2682927,black,legacy,legacy,legacy,0,uniform,1,undefined,1,s,0,0,0,40,40,40,40,0,0,40,0,0,0,40,40,40,9/9/18 20:05,1500,The main experiment item,yes,FlankerTask.osexp,E:/,no,mono,no,18,no,white,no,yes,768,legacy,40,40,E:/kg-subject-2.csv,legacy,Kafkaesque Koffka,3.2.5,0,s,NA,s,NA,NA,s,627,NA,218280,NA,NA,627,2,legacy,1024,2,48000,-16,experiment,2,even,221031,NA,NA,NA,302064,303274,299404,2740,NA,303279,2749,NA,NA,303392,304022,303392,Flanker Task,36,26497,41,yes,1024
Incongruent,HHSHH,88.0952381,88.0952381,646.3571429,646.3571429,black,legacy,legacy,legacy,0,uniform,1,undefined,1,s,0,0,0,41,41,41,41,0,0,41,0,0,0,41,41,41,9/9/18 20:05,1500,The main experiment item,yes,FlankerTask.osexp,E:/,no,mono,no,18,no,white,no,yes,768,legacy,41,41,E:/kg-subject-2.csv,legacy,Kafkaesque Koffka,3.2.5,0,s,NA,s,NA,NA,s,650,NA,218280,NA,NA,650,2,legacy,1024,2,48000,-16,experiment,2,even,221031,NA,NA,NA,304035,305224,299404,2740,NA,305229,2749,NA,NA,305341,305993,305341,Flanker Task,37,27147,42,yes,1024
Congruent,HHHHH,88.37209302,88.37209302,647.8372093,647.8372093,black,legacy,legacy,legacy,0,uniform,1,undefined,1,h,0,0,0,42,42,42,42,0,0,42,0,0,0,42,42,42,9/9/18 20:05,1500,The main experiment item,yes,FlankerTask.osexp,E:/,no,mono,no,18,no,white,no,yes,768,legacy,42,42,E:/kg-subject-2.csv,legacy,Kafkaesque Koffka,3.2.5,0,h,NA,s,NA,NA,h,710,NA,218280,NA,NA,710,2,legacy,1024,2,48000,-16,experiment,2,even,221031,NA,NA,NA,306009,307227,299404,2740,NA,307233,2749,NA,NA,307338,308051,307338,Flanker Task,38,27857,43,yes,1024
Incongruent,SSHSS,88.63636364,88.63636364,648.1136364,648.1136364,black,legacy,legacy,legacy,0,uniform,1,undefined,1,h,0,0,0,43,43,43,43,0,0,43,0,0,0,43,43,43,9/9/18 20:05,1500,The main experiment item,yes,FlankerTask.osexp,E:/,no,mono,no,18,no,white,no,yes,768,legacy,43,43,E:/kg-subject-2.csv,legacy,Kafkaesque Koffka,3.2.5,0,h,NA,s,NA,NA,h,660,NA,218280,NA,NA,660,2,legacy,1024,2,48000,-16,experiment,2,even,221031,NA,NA,NA,308074,309267,299404,2740,NA,309273,2749,NA,NA,309385,310047,309385,Flanker Task,39,28517,44,yes,1024
Congruent,HHHHH,88.88888889,88.88888889,645.0222222,645.0222222,black,legacy,legacy,legacy,0,uniform,1,undefined,1,h,0,0,0,44,44,44,44,0,0,44,0,0,0,44,44,44,9/9/18 20:05,1500,The main experiment item,yes,FlankerTask.osexp,E:/,no,mono,no,18,no,white,no,yes,768,legacy,44,44,E:/kg-subject-2.csv,legacy,Kafkaesque Koffka,3.2.5,0,h,NA,s,NA,NA,h,509,NA,218280,NA,NA,509,2,legacy,1024,2,48000,-16,experiment,2,even,221031,NA,NA,NA,310060,311250,299404,2740,NA,311255,2749,NA,NA,311369,311880,311368,Flanker Task,40,29026,45,yes,1024
Incongruent,HHSHH,89.13043478,89.13043478,644.0217391,644.0217391,black,legacy,legacy,legacy,0,uniform,1,undefined,1,s,0,0,0,45,45,45,45,0,0,45,0,0,0,45,45,45,9/9/18 20:05,1500,The main experiment item,yes,FlankerTask.osexp,E:/,no,mono,no,18,no,white,no,yes,768,legacy,45,45,E:/kg-subject-2.csv,legacy,Kafkaesque Koffka,3.2.5,0,s,NA,s,NA,NA,s,599,NA,218280,NA,NA,599,2,legacy,1024,2,48000,-16,experiment,2,even,221031,NA,NA,NA,311894,313082,299404,2740,NA,313088,2749,NA,NA,313199,313801,313199,Flanker Task,41,29625,46,yes,1024
Congruent,SSSSS,89.36170213,89.36170213,640.1489362,640.1489362,black,legacy,legacy,legacy,0,uniform,1,undefined,1,s,0,0,0,46,46,46,46,0,0,46,0,0,0,46,46,46,9/9/18 20:05,1500,The main experiment item,yes,FlankerTask.osexp,E:/,no,mono,no,18,no,white,no,yes,768,legacy,46,46,E:/kg-subject-2.csv,legacy,Kafkaesque Koffka,3.2.5,0,s,NA,s,NA,NA,s,462,NA,218280,NA,NA,462,2,legacy,1024,2,48000,-16,experiment,2,even,221031,NA,NA,NA,313814,315000,299404,2740,NA,315005,2749,NA,NA,315118,315583,315117,Flanker Task,42,30087,47,yes,1024
Congruent,HHHHH,89.58333333,89.58333333,639.3125,639.3125,black,legacy,legacy,legacy,0,uniform,1,undefined,1,h,0,0,0,47,47,47,47,0,0,47,0,0,0,47,47,47,9/9/18 20:05,1500,The main experiment item,yes,FlankerTask.osexp,E:/,no,mono,no,18,no,white,no,yes,768,legacy,47,47,E:/kg-subject-2.csv,legacy,Kafkaesque Koffka,3.2.5,0,h,NA,s,NA,NA,h,600,NA,218280,NA,NA,600,2,legacy,1024,2,48000,-16,experiment,2,even,221031,NA,NA,NA,315596,316784,299404,2740,NA,316789,2749,NA,NA,316901,317504,316900,Flanker Task,43,30687,48,yes,1024
Incongruent,HHSHH,89.79591837,89.79591837,638.1020408,638.1020408,black,legacy,legacy,legacy,0,uniform,1,undefined,1,s,0,0,0,48,48,48,48,0,0,48,0,0,0,48,48,48,9/9/18 20:05,1500,The main experiment item,yes,FlankerTask.osexp,E:/,no,mono,no,18,no,white,no,yes,768,legacy,48,48,E:/kg-subject-2.csv,legacy,Kafkaesque Koffka,3.2.5,0,s,NA,s,NA,NA,s,580,NA,218280,NA,NA,580,2,legacy,1024,2,48000,-16,experiment,2,even,221031,NA,NA,NA,317517,318725,299404,2740,NA,318730,2749,NA,NA,318842,319425,318841,Flanker Task,44,31267,49,yes,1024
Congruent,HHHHH,90,90,637.04,637.04,black,legacy,legacy,legacy,0,uniform,1,undefined,1,h,0,0,0,49,49,49,49,0,0,49,0,0,0,49,49,49,9/9/18 20:05,1500,The main experiment item,yes,FlankerTask.osexp,E:/,no,mono,no,18,no,white,no,yes,768,legacy,49,49,E:/kg-subject-2.csv,legacy,Kafkaesque Koffka,3.2.5,0,h,NA,s,NA,NA,h,585,NA,218280,NA,NA,585,2,legacy,1024,2,48000,-16,experiment,2,even,221031,NA,NA,NA,319438,320634,299404,2740,NA,320640,2749,NA,NA,320744,321332,320744,Flanker Task,45,31852,50,yes,1024
Congruent,HHHHH,90.19607843,90.19607843,641.3529412,641.3529412,black,legacy,legacy,legacy,0,uniform,1,undefined,1,h,0,0,0,50,50,50,50,0,0,50,0,0,0,50,50,50,9/9/18 20:05,1500,The main experiment item,yes,FlankerTask.osexp,E:/,no,mono,no,18,no,white,no,yes,768,legacy,50,50,E:/kg-subject-2.csv,legacy,Kafkaesque Koffka,3.2.5,0,h,NA,s,NA,NA,h,857,NA,218280,NA,NA,857,2,legacy,1024,2,48000,-16,experiment,2,even,221031,NA,NA,NA,321346,322560,299404,2740,NA,322565,2749,NA,NA,322669,323529,322668,Flanker Task,46,32709,51,yes,1024
Incongruent,SSHSS,90.38461538,90.38461538,642.4615385,642.4615385,black,legacy,legacy,legacy,0,uniform,1,undefined,1,h,0,0,0,51,51,51,51,0,0,51,0,0,0,51,51,51,9/9/18 20:05,1500,The main experiment item,yes,FlankerTask.osexp,E:/,no,mono,no,18,no,white,no,yes,768,legacy,51,51,E:/kg-subject-2.csv,legacy,Kafkaesque Koffka,3.2.5,0,h,NA,s,NA,NA,h,699,NA,218280,NA,NA,699,2,legacy,1024,2,48000,-16,experiment,2,even,221031,NA,NA,NA,323544,324735,299404,2740,NA,324741,2749,NA,NA,324848,325550,324848,Flanker Task,47,33408,52,yes,1024
Incongruent,HHSHH,90.56603774,90.56603774,643.3396226,643.3396226,black,legacy,legacy,legacy,0,uniform,1,undefined,1,s,0,0,0,52,52,52,52,0,0,52,0,0,0,52,52,52,9/9/18 20:05,1500,The main experiment item,yes,FlankerTask.osexp,E:/,no,mono,no,18,no,white,no,yes,768,legacy,52,52,E:/kg-subject-2.csv,legacy,Kafkaesque Koffka,3.2.5,0,s,NA,s,NA,NA,s,689,NA,218280,NA,NA,689,2,legacy,1024,2,48000,-16,experiment,2,even,221031,NA,NA,NA,325564,326771,299404,2740,NA,326776,2749,NA,NA,326881,327573,326880,Flanker Task,48,34097,53,yes,1024
Congruent,HHHHH,90.74074074,90.74074074,647.7592593,647.7592593,black,legacy,legacy,legacy,0,uniform,1,undefined,1,h,0,0,0,53,53,53,53,0,0,53,0,0,0,53,53,53,9/9/18 20:05,1500,The main experiment item,yes,FlankerTask.osexp,E:/,no,mono,no,18,no,white,no,yes,768,legacy,53,53,E:/kg-subject-2.csv,legacy,Kafkaesque Koffka,3.2.5,0,h,NA,s,NA,NA,h,882,NA,218280,NA,NA,882,2,legacy,1024,2,48000,-16,experiment,2,even,221031,NA,NA,NA,327587,328779,299404,2740,NA,328784,2749,NA,NA,328897,329782,328897,Flanker Task,49,34979,54,yes,1024
Congruent,HHHHH,89.09090909,89.09090909,663.2545455,663.2545455,black,legacy,legacy,legacy,0,uniform,0,undefined,0,h,0,0,0,54,54,54,54,0,0,54,0,0,0,54,54,54,9/9/18 20:05,1500,The main experiment item,yes,FlankerTask.osexp,E:/,no,mono,no,18,no,white,no,yes,768,legacy,54,54,E:/kg-subject-2.csv,legacy,Kafkaesque Koffka,3.2.5,0,None,NA,s,NA,NA,None,1500,NA,218280,NA,NA,1500,2,legacy,1024,2,48000,-16,experiment,2,even,221031,NA,NA,NA,329796,331012,299404,2740,NA,331018,2749,NA,NA,331122,332624,331121,Flanker Task,49,36479,55,yes,1024
Incongruent,SSHSS,89.28571429,89.28571429,670.9464286,670.9464286,black,legacy,legacy,legacy,0,uniform,1,undefined,1,h,0,0,0,55,55,55,55,0,0,55,0,0,0,55,55,55,9/9/18 20:05,1500,The main experiment item,yes,FlankerTask.osexp,E:/,no,mono,no,18,no,white,no,yes,768,legacy,55,55,E:/kg-subject-2.csv,legacy,Kafkaesque Koffka,3.2.5,0,h,NA,s,NA,NA,h,1094,NA,218280,NA,NA,1094,2,legacy,1024,2,48000,-16,experiment,2,even,221031,NA,NA,NA,333149,334359,332637,2740,NA,334365,2749,NA,NA,334472,335569,334472,Flanker Task,50,37573,56,yes,1024
Incongruent,SSHSS,89.47368421,89.47368421,670.7192982,670.7192982,black,legacy,legacy,legacy,0,uniform,1,undefined,1,h,0,0,0,56,56,56,56,0,0,56,0,0,0,56,56,56,9/9/18 20:05,1500,The main experiment item,yes,FlankerTask.osexp,E:/,no,mono,no,18,no,white,no,yes,768,legacy,56,56,E:/kg-subject-2.csv,legacy,Kafkaesque Koffka,3.2.5,0,h,NA,s,NA,NA,h,658,NA,218280,NA,NA,658,2,legacy,1024,2,48000,-16,experiment,2,even,221031,NA,NA,NA,335582,336787,332637,2740,NA,336792,2749,NA,NA,336904,337565,336904,Flanker Task,51,38231,57,yes,1024
Congruent,SSSSS,89.65517241,89.65517241,670.6551724,670.6551724,black,legacy,legacy,legacy,0,uniform,1,undefined,1,s,0,0,0,57,57,57,57,0,0,57,0,0,0,57,57,57,9/9/18 20:05,1500,The main experiment item,yes,FlankerTask.osexp,E:/,no,mono,no,18,no,white,no,yes,768,legacy,57,57,E:/kg-subject-2.csv,legacy,Kafkaesque Koffka,3.2.5,0,s,NA,s,NA,NA,s,667,NA,218280,NA,NA,667,2,legacy,1024,2,48000,-16,experiment,2,even,221031,NA,NA,NA,337581,338793,332637,2740,NA,338799,2749,NA,NA,338903,339573,338902,Flanker Task,52,38898,58,yes,1024
Incongruent,HHSHH,89.83050847,89.83050847,671.8983051,671.8983051,black,legacy,legacy,legacy,0,uniform,1,undefined,1,s,0,0,0,58,58,58,58,0,0,58,0,0,0,58,58,58,9/9/18 20:05,1500,The main experiment item,yes,FlankerTask.osexp,E:/,no,mono,no,18,no,white,no,yes,768,legacy,58,58,E:/kg-subject-2.csv,legacy,Kafkaesque Koffka,3.2.5,0,s,NA,s,NA,NA,s,744,NA,218280,NA,NA,744,2,legacy,1024,2,48000,-16,experiment,2,even,221031,NA,NA,NA,339587,340779,332637,2740,NA,340785,2749,NA,NA,340898,341645,340897,Flanker Task,53,39642,59,yes,1024
Incongruent,SSHSS,90,90,672.1666667,672.1666667,black,legacy,legacy,legacy,0,uniform,1,undefined,1,h,0,0,0,59,59,59,59,0,0,59,0,0,0,59,59,59,9/9/18 20:05,1500,The main experiment item,yes,FlankerTask.osexp,E:/,no,mono,no,18,no,white,no,yes,768,legacy,59,59,E:/kg-subject-2.csv,legacy,Kafkaesque Koffka,3.2.5,0,h,NA,s,NA,NA,h,688,NA,218280,NA,NA,688,2,legacy,1024,2,48000,-16,experiment,2,even,221031,NA,NA,NA,341659,342864,332637,2740,NA,342870,2749,NA,NA,342975,343666,342975,Flanker Task,54,40330,60,yes,1024
Congruent,HHHHH,90.16393443,90.16393443,667.9508197,667.9508197,black,legacy,legacy,legacy,0,uniform,1,undefined,1,h,0,0,0,60,60,60,60,0,0,60,0,0,0,60,60,60,9/9/18 20:05,1500,The main experiment item,yes,FlankerTask.osexp,E:/,no,mono,no,18,no,white,no,yes,768,legacy,60,60,E:/kg-subject-2.csv,legacy,Kafkaesque Koffka,3.2.5,0,h,NA,s,NA,NA,h,415,NA,218280,NA,NA,415,2,legacy,1024,2,48000,-16,experiment,2,even,221031,NA,NA,NA,343679,344889,332637,2740,NA,344894,2749,NA,NA,345005,345423,345004,Flanker Task,55,40745,61,yes,1024
Incongruent,HHSHH,90.32258065,90.32258065,680.2903226,680.2903226,black,legacy,legacy,legacy,0,uniform,1,undefined,1,s,0,0,0,61,61,61,61,0,0,61,0,0,0,61,61,61,9/9/18 20:05,1500,The main experiment item,yes,FlankerTask.osexp,E:/,no,mono,no,18,no,white,no,yes,768,legacy,61,61,E:/kg-subject-2.csv,legacy,Kafkaesque Koffka,3.2.5,0,s,NA,s,NA,NA,s,1433,NA,218280,NA,NA,1433,2,legacy,1024,2,48000,-16,experiment,2,even,221031,NA,NA,NA,345436,346655,332637,2740,NA,346661,2749,NA,NA,346773,348209,346773,Flanker Task,56,42178,62,yes,1024
Congruent,HHHHH,90.47619048,90.47619048,682.7936508,682.7936508,black,legacy,legacy,legacy,0,uniform,1,undefined,1,h,0,0,0,62,62,62,62,0,0,62,0,0,0,62,62,62,9/9/18 20:05,1500,The main experiment item,yes,FlankerTask.osexp,E:/,no,mono,no,18,no,white,no,yes,768,legacy,62,62,E:/kg-subject-2.csv,legacy,Kafkaesque Koffka,3.2.5,0,h,NA,s,NA,NA,h,838,NA,218280,NA,NA,838,2,legacy,1024,2,48000,-16,experiment,2,even,221031,NA,NA,NA,348223,349443,332637,2740,NA,349449,2749,NA,NA,349553,350395,349553,Flanker Task,57,43016,63,yes,1024
Incongruent,SSHSS,90.625,90.625,683.6875,683.6875,black,legacy,legacy,legacy,0,uniform,1,undefined,1,h,0,0,0,63,63,63,63,0,0,63,0,0,0,63,63,63,9/9/18 20:05,1500,The main experiment item,yes,FlankerTask.osexp,E:/,no,mono,no,18,no,white,no,yes,768,legacy,63,63,E:/kg-subject-2.csv,legacy,Kafkaesque Koffka,3.2.5,0,h,NA,s,NA,NA,h,740,NA,218280,NA,NA,740,2,legacy,1024,2,48000,-16,experiment,2,even,221031,NA,NA,NA,350465,351654,332637,2740,NA,351660,2749,NA,NA,351772,352515,351771,Flanker Task,58,43756,64,yes,1024
Congruent,SSSSS,90.76923077,90.76923077,685.4153846,685.4153846,black,legacy,legacy,legacy,0,uniform,1,undefined,1,s,0,0,0,64,64,64,64,0,0,64,0,0,0,64,64,64,9/9/18 20:05,1500,The main experiment item,yes,FlankerTask.osexp,E:/,no,mono,no,18,no,white,no,yes,768,legacy,64,64,E:/kg-subject-2.csv,legacy,Kafkaesque Koffka,3.2.5,0,s,NA,s,NA,NA,s,796,NA,218280,NA,NA,796,2,legacy,1024,2,48000,-16,experiment,2,even,221031,NA,NA,NA,352531,353740,332637,2740,NA,353746,2749,NA,NA,353850,354649,353849,Flanker Task,59,44552,65,yes,1024
Incongruent,SSHSS,90.90909091,90.90909091,685.0151515,685.0151515,black,legacy,legacy,legacy,0,uniform,1,undefined,1,h,0,0,0,65,65,65,65,0,0,65,0,0,0,65,65,65,9/9/18 20:05,1500,The main experiment item,yes,FlankerTask.osexp,E:/,no,mono,no,18,no,white,no,yes,768,legacy,65,65,E:/kg-subject-2.csv,legacy,Kafkaesque Koffka,3.2.5,0,h,NA,s,NA,NA,h,659,NA,218280,NA,NA,659,2,legacy,1024,2,48000,-16,experiment,2,even,221031,NA,NA,NA,354666,355864,332637,2740,NA,355870,2749,NA,NA,355982,356644,355982,Flanker Task,60,45211,66,yes,1024
Incongruent,SSHSS,91.04477612,91.04477612,685.3880597,685.3880597,black,legacy,legacy,legacy,0,uniform,1,undefined,1,h,0,0,0,66,66,66,66,0,0,66,0,0,0,66,66,66,9/9/18 20:05,1500,The main experiment item,yes,FlankerTask.osexp,E:/,no,mono,no,18,no,white,no,yes,768,legacy,66,66,E:/kg-subject-2.csv,legacy,Kafkaesque Koffka,3.2.5,0,h,NA,s,NA,NA,h,710,NA,218280,NA,NA,710,2,legacy,1024,2,48000,-16,experiment,2,even,221031,NA,NA,NA,356658,357868,332637,2740,NA,357873,2749,NA,NA,357978,358691,357977,Flanker Task,61,45921,67,yes,1024
Congruent,SSSSS,91.17647059,91.17647059,683.6911765,683.6911765,black,legacy,legacy,legacy,0,uniform,1,undefined,1,s,0,0,0,67,67,67,67,0,0,67,0,0,0,67,67,67,9/9/18 20:05,1500,The main experiment item,yes,FlankerTask.osexp,E:/,no,mono,no,18,no,white,no,yes,768,legacy,67,67,E:/kg-subject-2.csv,legacy,Kafkaesque Koffka,3.2.5,0,s,NA,s,NA,NA,s,570,NA,218280,NA,NA,570,2,legacy,1024,2,48000,-16,experiment,2,even,221031,NA,NA,NA,358705,359892,332637,2740,NA,359898,2749,NA,NA,360011,360584,360010,Flanker Task,62,46491,68,yes,1024
Incongruent,HHSHH,91.30434783,91.30434783,681.3913043,681.3913043,black,legacy,legacy,legacy,0,uniform,1,undefined,1,s,0,0,0,68,68,68,68,0,0,68,0,0,0,68,68,68,9/9/18 20:05,1500,The main experiment item,yes,FlankerTask.osexp,E:/,no,mono,no,18,no,white,no,yes,768,legacy,68,68,E:/kg-subject-2.csv,legacy,Kafkaesque Koffka,3.2.5,0,s,NA,s,NA,NA,s,525,NA,218280,NA,NA,525,2,legacy,1024,2,48000,-16,experiment,2,even,221031,NA,NA,NA,360597,361786,332637,2740,NA,361791,2749,NA,NA,361904,362432,361904,Flanker Task,63,47016,69,yes,1024
Incongruent,SSHSS,90,90,678.6714286,678.6714286,black,legacy,legacy,legacy,0,uniform,0,undefined,0,h,0,0,0,69,69,69,69,0,0,69,0,0,0,69,69,69,9/9/18 20:05,1500,The main experiment item,yes,FlankerTask.osexp,E:/,no,mono,no,18,no,white,no,yes,768,legacy,69,69,E:/kg-subject-2.csv,legacy,Kafkaesque Koffka,3.2.5,0,s,NA,s,NA,NA,s,491,NA,218280,NA,NA,491,2,legacy,1024,2,48000,-16,experiment,2,even,221031,NA,NA,NA,362448,363661,332637,2740,NA,363667,2749,NA,NA,363772,364266,363772,Flanker Task,63,47507,70,yes,1024
Congruent,SSSSS,88.73239437,88.73239437,676.3380282,676.3380282,black,legacy,legacy,legacy,0,uniform,0,undefined,0,s,0,0,0,70,70,70,70,0,0,70,0,0,0,70,70,70,9/9/18 20:05,1500,The main experiment item,yes,FlankerTask.osexp,E:/,no,mono,no,18,no,white,no,yes,768,legacy,70,70,E:/kg-subject-2.csv,legacy,Kafkaesque Koffka,3.2.5,0,h,NA,s,NA,NA,h,513,NA,218280,NA,NA,513,2,legacy,1024,2,48000,-16,experiment,2,even,221031,NA,NA,NA,364792,365979,364279,2740,NA,365984,2749,NA,NA,366097,366613,366097,Flanker Task,63,48020,71,yes,1024
Congruent,SSSSS,88.88888889,88.88888889,676.5833333,676.5833333,black,legacy,legacy,legacy,0,uniform,1,undefined,1,s,0,0,0,71,71,71,71,0,0,71,0,0,0,71,71,71,9/9/18 20:05,1500,The main experiment item,yes,FlankerTask.osexp,E:/,no,mono,no,18,no,white,no,yes,768,legacy,71,71,E:/kg-subject-2.csv,legacy,Kafkaesque Koffka,3.2.5,0,s,NA,s,NA,NA,s,694,NA,218280,NA,NA,694,2,legacy,1024,2,48000,-16,experiment,2,even,221031,NA,NA,NA,367142,368334,366629,2740,NA,368340,2749,NA,NA,368452,369149,368452,Flanker Task,64,48714,72,yes,1024
Incongruent,SSHSS,89.04109589,89.04109589,675.9178082,675.9178082,black,legacy,legacy,legacy,0,uniform,1,undefined,1,h,0,0,0,72,72,72,72,0,0,72,0,0,0,72,72,72,9/9/18 20:05,1500,The main experiment item,yes,FlankerTask.osexp,E:/,no,mono,no,18,no,white,no,yes,768,legacy,72,72,E:/kg-subject-2.csv,legacy,Kafkaesque Koffka,3.2.5,0,h,NA,s,NA,NA,h,628,NA,218280,NA,NA,628,2,legacy,1024,2,48000,-16,experiment,2,even,221031,NA,NA,NA,369163,370371,366629,2740,NA,370377,2749,NA,NA,370489,371121,370489,Flanker Task,65,49342,73,yes,1024
Incongruent,HHSHH,89.18918919,89.18918919,677.1216216,677.1216216,black,legacy,legacy,legacy,0,uniform,1,undefined,1,s,0,0,0,73,73,73,73,0,0,73,0,0,0,73,73,73,9/9/18 20:05,1500,The main experiment item,yes,FlankerTask.osexp,E:/,no,mono,no,18,no,white,no,yes,768,legacy,73,73,E:/kg-subject-2.csv,legacy,Kafkaesque Koffka,3.2.5,0,s,NA,s,NA,NA,s,765,NA,218280,NA,NA,765,2,legacy,1024,2,48000,-16,experiment,2,even,221031,NA,NA,NA,371135,372337,366629,2740,NA,372343,2749,NA,NA,372447,373216,372447,Flanker Task,66,50107,74,yes,1024
Incongruent,HHSHH,89.33333333,89.33333333,676.72,676.72,black,legacy,legacy,legacy,0,uniform,1,undefined,1,s,0,0,0,74,74,74,74,0,0,74,0,0,0,74,74,74,9/9/18 20:05,1500,The main experiment item,yes,FlankerTask.osexp,E:/,no,mono,no,18,no,white,no,yes,768,legacy,74,74,E:/kg-subject-2.csv,legacy,Kafkaesque Koffka,3.2.5,0,s,NA,s,NA,NA,s,647,NA,218280,NA,NA,647,2,legacy,1024,2,48000,-16,experiment,2,even,221031,NA,NA,NA,373229,374418,366629,2740,NA,374424,2749,NA,NA,374536,375187,374536,Flanker Task,67,50754,75,yes,1024
Incongruent,HHSHH,89.47368421,89.47368421,674.8289474,674.8289474,black,legacy,legacy,legacy,0,uniform,1,undefined,1,s,0,0,0,75,75,75,75,0,0,75,0,0,0,75,75,75,9/9/18 20:05,1500,The main experiment item,yes,FlankerTask.osexp,E:/,no,mono,no,18,no,white,no,yes,768,legacy,75,75,E:/kg-subject-2.csv,legacy,Kafkaesque Koffka,3.2.5,0,s,NA,s,NA,NA,s,533,NA,218280,NA,NA,533,2,legacy,1024,2,48000,-16,experiment,2,even,221031,NA,NA,NA,375200,376404,366629,2740,NA,376410,2749,NA,NA,376522,377058,376522,Flanker Task,68,51287,76,yes,1024
Congruent,SSSSS,89.61038961,89.61038961,671.6753247,671.6753247,black,legacy,legacy,legacy,0,uniform,1,undefined,1,s,0,0,0,76,76,76,76,0,0,76,0,0,0,76,76,76,9/9/18 20:05,1500,The main experiment item,yes,FlankerTask.osexp,E:/,no,mono,no,18,no,white,no,yes,768,legacy,76,76,E:/kg-subject-2.csv,legacy,Kafkaesque Koffka,3.2.5,0,s,NA,s,NA,NA,s,432,NA,218280,NA,NA,432,2,legacy,1024,2,48000,-16,experiment,2,even,221031,NA,NA,NA,377072,378289,366629,2740,NA,378295,2749,NA,NA,378403,378839,378403,Flanker Task,69,51719,77,yes,1024
Congruent,SSSSS,89.74358974,89.74358974,668.1923077,668.1923077,black,legacy,legacy,legacy,0,uniform,1,undefined,1,s,0,0,0,77,77,77,77,0,0,77,0,0,0,77,77,77,9/9/18 20:05,1500,The main experiment item,yes,FlankerTask.osexp,E:/,no,mono,no,18,no,white,no,yes,768,legacy,77,77,E:/kg-subject-2.csv,legacy,Kafkaesque Koffka,3.2.5,0,s,NA,s,NA,NA,s,400,NA,218280,NA,NA,400,2,legacy,1024,2,48000,-16,experiment,2,even,221031,NA,NA,NA,378852,380038,366629,2740,NA,380044,2749,NA,NA,380156,380560,380156,Flanker Task,70,52119,78,yes,1024
Incongruent,SSHSS,88.60759494,88.60759494,664.2531646,664.2531646,black,legacy,legacy,legacy,0,uniform,0,undefined,0,h,0,0,0,78,78,78,78,0,0,78,0,0,0,78,78,78,9/9/18 20:05,1500,The main experiment item,yes,FlankerTask.osexp,E:/,no,mono,no,18,no,white,no,yes,768,legacy,78,78,E:/kg-subject-2.csv,legacy,Kafkaesque Koffka,3.2.5,0,s,NA,s,NA,NA,s,357,NA,218280,NA,NA,357,2,legacy,1024,2,48000,-16,experiment,2,even,221031,NA,NA,NA,380575,381764,366629,2740,NA,381770,2749,NA,NA,381882,382242,381882,Flanker Task,70,52476,79,yes,1024
Incongruent,HHSHH,87.5,87.5,661.8375,661.8375,black,legacy,legacy,legacy,0,uniform,0,undefined,0,s,0,0,0,79,79,79,79,0,0,79,0,0,0,79,79,79,9/9/18 20:05,1500,The main experiment item,yes,FlankerTask.osexp,E:/,no,mono,no,18,no,white,no,yes,768,legacy,79,79,E:/kg-subject-2.csv,legacy,Kafkaesque Koffka,3.2.5,0,h,NA,s,NA,NA,h,471,NA,218280,NA,NA,471,2,legacy,1024,2,48000,-16,experiment,2,even,221031,NA,NA,NA,382759,383970,382255,2740,NA,383975,2749,NA,NA,384088,384563,384088,Flanker Task,70,52947,80,yes,1024
Incongruent,SSHSS,87.65432099,87.65432099,663.1234568,663.1234568,black,legacy,legacy,legacy,0,uniform,1,undefined,1,h,0,0,0,80,80,80,80,0,0,80,0,0,0,80,80,80,9/9/18 20:05,600,The main experiment item,yes,FlankerTask.osexp,E:/,no,mono,no,18,no,white,no,yes,768,legacy,0,79,E:/kg-subject-2.csv,legacy,Kafkaesque Koffka,3.2.5,0,h,NA,s,s,NA,h,766,NA,218280,16639,NA,766,2,legacy,1024,2,48000,-16,experiment,2,even,221031,402779,NA,NA,385084,402985,384577,2740,NA,402990,2749,386136,NA,403103,403873,403102,Flanker Task,71,53713,81,yes,1024
Incongruent,HHSHH,87.80487805,87.80487805,665.8902439,665.8902439,black,legacy,legacy,legacy,0,uniform,1,undefined,1,s,0,0,0,81,81,81,81,0,0,81,0,0,0,81,81,81,9/9/18 20:05,600,The main experiment item,yes,FlankerTask.osexp,E:/,no,mono,no,18,no,white,no,yes,768,legacy,1,79,E:/kg-subject-2.csv,legacy,Kafkaesque Koffka,3.2.5,0,s,NA,s,s,NA,s,890,NA,218280,16639,NA,890,2,legacy,1024,2,48000,-16,experiment,2,even,221031,402779,NA,403887,404391,405606,384577,2740,NA,405611,2749,386136,NA,405716,406609,405715,Flanker Task,72,54603,82,yes,1024
Congruent,SSSSS,86.74698795,86.74698795,662.5301205,662.5301205,black,legacy,legacy,legacy,0,uniform,0,undefined,0,s,0,0,0,82,82,82,82,0,0,82,0,0,0,82,82,82,9/9/18 20:05,600,The main experiment item,yes,FlankerTask.osexp,E:/,no,mono,no,18,no,white,no,yes,768,legacy,2,79,E:/kg-subject-2.csv,legacy,Kafkaesque Koffka,3.2.5,0,h,NA,s,s,NA,h,387,NA,218280,16639,NA,387,2,legacy,1024,2,48000,-16,experiment,2,even,221031,402779,NA,406622,407126,408312,384577,2740,NA,408318,2749,386136,NA,408426,408817,408426,Flanker Task,72,54990,83,yes,1024
Incongruent,HHSHH,86.9047619,86.9047619,658.8214286,658.8214286,black,legacy,legacy,legacy,0,uniform,1,undefined,1,s,0,0,0,83,83,83,83,0,0,83,0,0,0,83,83,83,9/9/18 20:05,600,The main experiment item,yes,FlankerTask.osexp,E:/,no,mono,no,18,no,white,no,yes,768,legacy,3,79,E:/kg-subject-2.csv,legacy,Kafkaesque Koffka,3.2.5,0,s,NA,s,s,NA,s,351,NA,218280,16639,NA,351,2,legacy,1024,2,48000,-16,experiment,2,even,221031,402779,NA,406622,409335,410540,408832,2740,NA,410546,2749,386136,NA,410659,411014,410658,Flanker Task,73,55341,84,yes,1024
Congruent,SSSSS,85.88235294,85.88235294,655.4235294,655.4235294,black,legacy,legacy,legacy,0,uniform,0,undefined,0,s,0,0,0,84,84,84,84,0,0,84,0,0,0,84,84,84,9/9/18 20:05,600,The main experiment item,yes,FlankerTask.osexp,E:/,no,mono,no,18,no,white,no,yes,768,legacy,4,79,E:/kg-subject-2.csv,legacy,Kafkaesque Koffka,3.2.5,0,h,NA,s,s,NA,h,370,NA,218280,16639,NA,370,2,legacy,1024,2,48000,-16,experiment,2,even,221031,402779,NA,406622,411027,412236,408832,2740,NA,412243,2749,386136,NA,412347,412720,412346,Flanker Task,73,55711,85,yes,1024
Congruent,HHHHH,84.88372093,84.88372093,650.244186,650.244186,black,legacy,legacy,legacy,0,uniform,0,undefined,0,h,0,0,0,85,85,85,85,0,0,85,0,0,0,85,85,85,9/9/18 20:05,600,The main experiment item,yes,FlankerTask.osexp,E:/,no,mono,no,18,no,white,no,yes,768,legacy,5,79,E:/kg-subject-2.csv,legacy,Kafkaesque Koffka,3.2.5,0,s,NA,s,s,NA,s,210,NA,218280,16639,NA,210,2,legacy,1024,2,48000,-16,experiment,2,even,221031,402779,NA,406622,413246,414454,412734,2740,NA,414460,2749,386136,NA,414564,414778,414564,Flanker Task,73,55921,86,yes,1024
Congruent,SSSSS,83.90804598,83.90804598,647.7586207,647.7586207,black,legacy,legacy,legacy,0,uniform,0,undefined,0,s,0,0,0,86,86,86,86,0,0,86,0,0,0,86,86,86,9/9/18 20:05,600,The main experiment item,yes,FlankerTask.osexp,E:/,no,mono,no,18,no,white,no,yes,768,legacy,6,79,E:/kg-subject-2.csv,legacy,Kafkaesque Koffka,3.2.5,0,h,NA,s,s,NA,h,434,NA,218280,16639,NA,434,2,legacy,1024,2,48000,-16,experiment,2,even,221031,402779,NA,406622,415295,416498,414791,2740,NA,416504,2749,386136,NA,416611,417049,416611,Flanker Task,73,56355,87,yes,1024
Incongruent,SSHSS,84.09090909,84.09090909,649.0113636,649.0113636,black,legacy,legacy,legacy,0,uniform,1,undefined,1,h,0,0,0,87,87,87,87,0,0,87,0,0,0,87,87,87,9/9/18 20:05,600,The main experiment item,yes,FlankerTask.osexp,E:/,no,mono,no,18,no,white,no,yes,768,legacy,7,79,E:/kg-subject-2.csv,legacy,Kafkaesque Koffka,3.2.5,0,h,NA,s,s,NA,h,758,NA,218280,16639,NA,758,2,legacy,1024,2,48000,-16,experiment,2,even,221031,402779,NA,406622,417576,418786,417064,2740,NA,418793,2749,386136,NA,418897,419659,418897,Flanker Task,74,57113,88,yes,1024
Incongruent,HHSHH,84.26966292,84.26966292,649.0674157,649.0674157,black,legacy,legacy,legacy,0,uniform,1,undefined,1,s,0,0,0,88,88,88,88,0,0,88,0,0,0,88,88,88,9/9/18 20:05,600,The main experiment item,yes,FlankerTask.osexp,E:/,no,mono,no,18,no,white,no,yes,768,legacy,8,79,E:/kg-subject-2.csv,legacy,Kafkaesque Koffka,3.2.5,0,s,NA,s,s,NA,s,654,NA,218280,16639,NA,654,2,legacy,1024,2,48000,-16,experiment,2,even,221031,402779,NA,419673,420178,421391,417064,2740,NA,421397,2749,386136,NA,421510,422167,421509,Flanker Task,75,57767,89,yes,1024
Congruent,HHHHH,84.44444444,84.44444444,648.2111111,648.2111111,black,legacy,legacy,legacy,0,uniform,1,undefined,1,h,0,0,0,89,89,89,89,0,0,89,0,0,0,89,89,89,9/9/18 20:05,600,The main experiment item,yes,FlankerTask.osexp,E:/,no,mono,no,18,no,white,no,yes,768,legacy,9,79,E:/kg-subject-2.csv,legacy,Kafkaesque Koffka,3.2.5,0,h,NA,s,s,NA,h,572,NA,218280,16639,NA,572,2,legacy,1024,2,48000,-16,experiment,2,even,221031,402779,NA,422180,422692,423887,417064,2740,NA,423892,2749,386136,NA,424004,424579,424004,Flanker Task,76,58339,90,yes,1024
Incongruent,SSHSS,84.61538462,84.61538462,648.5494505,648.5494505,black,legacy,legacy,legacy,0,uniform,1,undefined,1,h,0,0,0,90,90,90,90,0,0,90,0,0,0,90,90,90,9/9/18 20:05,600,The main experiment item,yes,FlankerTask.osexp,E:/,no,mono,no,18,no,white,no,yes,768,legacy,10,79,E:/kg-subject-2.csv,legacy,Kafkaesque Koffka,3.2.5,0,h,NA,s,s,NA,h,679,NA,218280,16639,NA,679,2,legacy,1024,2,48000,-16,experiment,2,even,221031,402779,NA,422180,424595,425785,417064,2740,NA,425791,2749,386136,NA,425903,426587,425903,Flanker Task,77,59018,91,yes,1024
Congruent,SSSSS,84.7826087,84.7826087,646.7608696,646.7608696,black,legacy,legacy,legacy,0,uniform,1,undefined,1,s,0,0,0,91,91,91,91,0,0,91,0,0,0,91,91,91,9/9/18 20:05,600,The main experiment item,yes,FlankerTask.osexp,E:/,no,mono,no,18,no,white,no,yes,768,legacy,11,79,E:/kg-subject-2.csv,legacy,Kafkaesque Koffka,3.2.5,0,s,NA,s,s,NA,s,484,NA,218280,16639,NA,484,2,legacy,1024,2,48000,-16,experiment,2,even,221031,402779,NA,426599,427111,428315,417064,2740,NA,428320,2749,386136,NA,428433,428921,428432,Flanker Task,78,59502,92,yes,1024
Incongruent,HHSHH,84.94623656,84.94623656,644.655914,644.655914,black,legacy,legacy,legacy,0,uniform,1,undefined,1,s,0,0,0,92,92,92,92,0,0,92,0,0,0,92,92,92,9/9/18 20:05,600,The main experiment item,yes,FlankerTask.osexp,E:/,no,mono,no,18,no,white,no,yes,768,legacy,12,79,E:/kg-subject-2.csv,legacy,Kafkaesque Koffka,3.2.5,0,s,NA,s,s,NA,s,451,NA,218280,16639,NA,451,2,legacy,1024,2,48000,-16,experiment,2,even,221031,402779,NA,426599,428933,430142,417064,2740,NA,430147,2749,386136,NA,430260,430715,430259,Flanker Task,79,59953,93,yes,1024
Congruent,HHHHH,84.04255319,84.04255319,641.4574468,641.4574468,black,legacy,legacy,legacy,0,uniform,0,undefined,0,h,0,0,0,93,93,93,93,0,0,93,0,0,0,93,93,93,9/9/18 20:05,600,The main experiment item,yes,FlankerTask.osexp,E:/,no,mono,no,18,no,white,no,yes,768,legacy,13,79,E:/kg-subject-2.csv,legacy,Kafkaesque Koffka,3.2.5,0,s,NA,s,s,NA,s,344,NA,218280,16639,NA,344,2,legacy,1024,2,48000,-16,experiment,2,even,221031,402779,NA,426599,430728,431930,417064,2740,NA,431936,2749,386136,NA,432049,432396,432048,Flanker Task,79,60297,94,yes,1024
Incongruent,SSHSS,84.21052632,84.21052632,637.8842105,637.8842105,black,legacy,legacy,legacy,0,uniform,1,undefined,1,h,0,0,0,94,94,94,94,0,0,94,0,0,0,94,94,94,9/9/18 20:05,600,The main experiment item,yes,FlankerTask.osexp,E:/,no,mono,no,18,no,white,no,yes,768,legacy,14,79,E:/kg-subject-2.csv,legacy,Kafkaesque Koffka,3.2.5,0,h,NA,s,s,NA,h,302,NA,218280,16639,NA,302,2,legacy,1024,2,48000,-16,experiment,2,even,221031,402779,NA,426599,432913,434130,432409,2740,NA,434136,2749,386136,NA,434248,434554,434248,Flanker Task,80,60599,95,yes,1024
Congruent,HHHHH,84.375,84.375,635.875,635.875,black,legacy,legacy,legacy,0,uniform,1,undefined,1,h,0,0,0,95,95,95,95,0,0,95,0,0,0,95,95,95,9/9/18 20:05,600,The main experiment item,yes,FlankerTask.osexp,E:/,no,mono,no,18,no,white,no,yes,768,legacy,15,79,E:/kg-subject-2.csv,legacy,Kafkaesque Koffka,3.2.5,0,h,NA,s,s,NA,h,445,NA,218280,16639,NA,445,2,legacy,1024,2,48000,-16,experiment,2,even,221031,402779,NA,426599,434568,435777,432409,2740,NA,435783,2749,386136,NA,435887,436337,435887,Flanker Task,81,61044,96,yes,1024
Congruent,HHHHH,84.53608247,84.53608247,632.8041237,632.8041237,black,legacy,legacy,legacy,0,uniform,1,undefined,1,h,0,0,0,96,96,96,96,0,0,96,0,0,0,96,96,96,9/9/18 20:05,600,The main experiment item,yes,FlankerTask.osexp,E:/,no,mono,no,18,no,white,no,yes,768,legacy,16,79,E:/kg-subject-2.csv,legacy,Kafkaesque Koffka,3.2.5,0,h,NA,s,s,NA,h,338,NA,218280,16639,NA,338,2,legacy,1024,2,48000,-16,experiment,2,even,221031,402779,NA,426599,436402,437615,432409,2740,NA,437621,2749,386136,NA,437725,438067,437724,Flanker Task,82,61382,97,yes,1024
Congruent,HHHHH,84.69387755,84.69387755,630.1020408,630.1020408,black,legacy,legacy,legacy,0,uniform,1,undefined,1,h,0,0,0,97,97,97,97,0,0,97,0,0,0,97,97,97,9/9/18 20:05,600,The main experiment item,yes,FlankerTask.osexp,E:/,no,mono,no,18,no,white,no,yes,768,legacy,17,79,E:/kg-subject-2.csv,legacy,Kafkaesque Koffka,3.2.5,0,h,NA,s,s,NA,h,368,NA,218280,16639,NA,368,2,legacy,1024,2,48000,-16,experiment,2,even,221031,402779,NA,426599,438083,439293,432409,2740,NA,439298,2749,386136,NA,439402,439774,439401,Flanker Task,83,61750,98,yes,1024
Incongruent,SSHSS,84.84848485,84.84848485,627.8787879,627.8787879,black,legacy,legacy,legacy,0,uniform,1,undefined,1,h,0,0,0,98,98,98,98,0,0,98,0,0,0,98,98,98,9/9/18 20:05,600,The main experiment item,yes,FlankerTask.osexp,E:/,no,mono,no,18,no,white,no,yes,768,legacy,18,79,E:/kg-subject-2.csv,legacy,Kafkaesque Koffka,3.2.5,0,h,NA,s,s,NA,h,410,NA,218280,16639,NA,410,2,legacy,1024,2,48000,-16,experiment,2,even,221031,402779,NA,426599,439787,440997,432409,2740,NA,441003,2749,386136,NA,441116,441531,441115,Flanker Task,84,62160,99,yes,1024
Congruent,HHHHH,85,85,625.88,625.88,black,legacy,legacy,legacy,0,uniform,1,undefined,1,h,0,0,0,99,99,99,99,0,0,99,0,0,0,99,99,99,9/9/18 20:05,600,The main experiment item,yes,FlankerTask.osexp,E:/,no,mono,no,18,no,white,no,yes,768,legacy,19,79,E:/kg-subject-2.csv,legacy,Kafkaesque Koffka,3.2.5,0,h,NA,s,s,NA,h,428,NA,218280,16639,NA,428,2,legacy,1024,2,48000,-16,experiment,2,even,221031,402779,NA,426599,441544,442735,432409,2740,NA,442740,2749,386136,NA,442853,443286,442853,Flanker Task,85,62588,100,yes,1024
Incongruent,SSHSS,85.14851485,85.14851485,625.5346535,625.5346535,black,legacy,legacy,legacy,0,uniform,1,undefined,1,h,0,0,0,100,100,100,100,0,0,100,0,0,0,100,100,100,9/9/18 20:05,600,The main experiment item,yes,FlankerTask.osexp,E:/,no,mono,no,18,no,white,no,yes,768,legacy,20,79,E:/kg-subject-2.csv,legacy,Kafkaesque Koffka,3.2.5,0,h,NA,s,s,NA,h,591,NA,218280,16639,NA,591,2,legacy,1024,2,48000,-16,experiment,2,even,221031,402779,NA,426599,443298,444490,432409,2740,NA,444496,2749,386136,NA,444600,445195,444599,Flanker Task,86,63179,101,yes,1024
Congruent,SSSSS,85.29411765,85.29411765,623.6666667,623.6666667,black,legacy,legacy,legacy,0,uniform,1,undefined,1,s,0,0,0,101,101,101,101,0,0,101,0,0,0,101,101,101,9/9/18 20:05,600,The main experiment item,yes,FlankerTask.osexp,E:/,no,mono,no,18,no,white,no,yes,768,legacy,21,79,E:/kg-subject-2.csv,legacy,Kafkaesque Koffka,3.2.5,0,s,NA,s,s,NA,s,435,NA,218280,16639,NA,435,2,legacy,1024,2,48000,-16,experiment,2,even,221031,402779,NA,426599,445208,446394,432409,2740,NA,446400,2749,386136,NA,446512,446951,446512,Flanker Task,87,63614,102,yes,1024
Incongruent,SSHSS,84.46601942,84.46601942,621.3398058,621.3398058,black,legacy,legacy,legacy,0,uniform,0,undefined,0,h,0,0,0,102,102,102,102,0,0,102,0,0,0,102,102,102,9/9/18 20:05,600,The main experiment item,yes,FlankerTask.osexp,E:/,no,mono,no,18,no,white,no,yes,768,legacy,22,79,E:/kg-subject-2.csv,legacy,Kafkaesque Koffka,3.2.5,0,s,NA,s,s,NA,s,384,NA,218280,16639,NA,384,2,legacy,1024,2,48000,-16,experiment,2,even,221031,402779,NA,426599,446964,448152,432409,2740,NA,448158,2749,386136,NA,448270,448658,448270,Flanker Task,87,63998,103,yes,1024
Incongruent,HHSHH,84.61538462,84.61538462,621.9230769,621.9230769,black,legacy,legacy,legacy,0,uniform,1,undefined,1,s,0,0,0,103,103,103,103,0,0,103,0,0,0,103,103,103,9/9/18 20:05,600,The main experiment item,yes,FlankerTask.osexp,E:/,no,mono,no,18,no,white,no,yes,768,legacy,23,79,E:/kg-subject-2.csv,legacy,Kafkaesque Koffka,3.2.5,0,s,NA,s,s,NA,s,682,NA,218280,16639,NA,682,2,legacy,1024,2,48000,-16,experiment,2,even,221031,402779,NA,426599,449176,450396,448671,2740,NA,450402,2749,386136,NA,450506,451193,450505,Flanker Task,88,64680,104,yes,1024
Incongruent,SSHSS,83.80952381,83.80952381,619.5142857,619.5142857,black,legacy,legacy,legacy,0,uniform,0,undefined,0,h,0,0,0,104,104,104,104,0,0,104,0,0,0,104,104,104,9/9/18 20:05,600,The main experiment item,yes,FlankerTask.osexp,E:/,no,mono,no,18,no,white,no,yes,768,legacy,24,79,E:/kg-subject-2.csv,legacy,Kafkaesque Koffka,3.2.5,0,s,NA,s,s,NA,s,369,NA,218280,16639,NA,369,2,legacy,1024,2,48000,-16,experiment,2,even,221031,402779,NA,451206,451709,452923,448671,2740,NA,452928,2749,386136,NA,453041,453414,453041,Flanker Task,88,65049,105,yes,1024
Congruent,HHHHH,83.96226415,83.96226415,627.2075472,627.2075472,black,legacy,legacy,legacy,0,uniform,1,undefined,1,h,0,0,0,105,105,105,105,0,0,105,0,0,0,105,105,105,9/9/18 20:05,600,The main experiment item,yes,FlankerTask.osexp,E:/,no,mono,no,18,no,white,no,yes,768,legacy,25,79,E:/kg-subject-2.csv,legacy,Kafkaesque Koffka,3.2.5,0,h,NA,s,s,NA,h,1435,NA,218280,16639,NA,1435,2,legacy,1024,2,48000,-16,experiment,2,even,221031,402779,NA,451206,453941,455149,453430,2740,NA,455155,2749,386136,NA,455260,456700,455259,Flanker Task,89,66484,106,yes,1024
Incongruent,SSHSS,84.11214953,84.11214953,627.1682243,627.1682243,black,legacy,legacy,legacy,0,uniform,1,undefined,1,h,0,0,0,106,106,106,106,0,0,106,0,0,0,106,106,106,9/9/18 20:05,600,The main experiment item,yes,FlankerTask.osexp,E:/,no,mono,no,18,no,white,no,yes,768,legacy,26,79,E:/kg-subject-2.csv,legacy,Kafkaesque Koffka,3.2.5,0,h,NA,s,s,NA,h,623,NA,218280,16639,NA,623,2,legacy,1024,2,48000,-16,experiment,2,even,221031,402779,NA,456713,457220,458414,453430,2740,NA,458420,2749,386136,NA,458532,459159,458532,Flanker Task,90,67107,107,yes,1024
Incongruent,SSHSS,84.25925926,84.25925926,625.6018519,625.6018519,black,legacy,legacy,legacy,0,uniform,1,undefined,1,h,0,0,0,107,107,107,107,0,0,107,0,0,0,107,107,107,9/9/18 20:05,600,The main experiment item,yes,FlankerTask.osexp,E:/,no,mono,no,18,no,white,no,yes,768,legacy,27,79,E:/kg-subject-2.csv,legacy,Kafkaesque Koffka,3.2.5,0,h,NA,s,s,NA,h,458,NA,218280,16639,NA,458,2,legacy,1024,2,48000,-16,experiment,2,even,221031,402779,NA,459171,459684,460874,453430,2740,NA,460879,2749,386136,NA,460992,461455,460991,Flanker Task,91,67565,108,yes,1024
Congruent,HHHHH,84.40366972,84.40366972,624.3944954,624.3944954,black,legacy,legacy,legacy,0,uniform,1,undefined,1,h,0,0,0,108,108,108,108,0,0,108,0,0,0,108,108,108,9/9/18 20:05,600,The main experiment item,yes,FlankerTask.osexp,E:/,no,mono,no,18,no,white,no,yes,768,legacy,28,79,E:/kg-subject-2.csv,legacy,Kafkaesque Koffka,3.2.5,0,h,NA,s,s,NA,h,494,NA,218280,16639,NA,494,2,legacy,1024,2,48000,-16,experiment,2,even,221031,402779,NA,459171,461467,462673,453430,2740,NA,462678,2749,386136,NA,462790,463288,462790,Flanker Task,92,68059,109,yes,1024
Congruent,HHHHH,84.54545455,84.54545455,624.5090909,624.5090909,black,legacy,legacy,legacy,0,uniform,1,undefined,1,h,0,0,0,109,109,109,109,0,0,109,0,0,0,109,109,109,9/9/18 20:05,600,The main experiment item,yes,FlankerTask.osexp,E:/,no,mono,no,18,no,white,no,yes,768,legacy,29,79,E:/kg-subject-2.csv,legacy,Kafkaesque Koffka,3.2.5,0,h,NA,s,s,NA,h,637,NA,218280,16639,NA,637,2,legacy,1024,2,48000,-16,experiment,2,even,221031,402779,NA,459171,463303,464507,453430,2740,NA,464513,2749,386136,NA,464617,465259,464616,Flanker Task,93,68696,110,yes,1024
Congruent,HHHHH,84.68468468,84.68468468,622.4414414,622.4414414,black,legacy,legacy,legacy,0,uniform,1,undefined,1,h,0,0,0,110,110,110,110,0,0,110,0,0,0,110,110,110,9/9/18 20:05,600,The main experiment item,yes,FlankerTask.osexp,E:/,no,mono,no,18,no,white,no,yes,768,legacy,30,79,E:/kg-subject-2.csv,legacy,Kafkaesque Koffka,3.2.5,0,h,NA,s,s,NA,h,395,NA,218280,16639,NA,395,2,legacy,1024,2,48000,-16,experiment,2,even,221031,402779,NA,465271,465784,466987,453430,2740,NA,466992,2749,386136,NA,467105,467505,467105,Flanker Task,94,69091,111,yes,1024
Incongruent,SSHSS,84.82142857,84.82142857,620.9553571,620.9553571,black,legacy,legacy,legacy,0,uniform,1,undefined,1,h,0,0,0,111,111,111,111,0,0,111,0,0,0,111,111,111,9/9/18 20:05,600,The main experiment item,yes,FlankerTask.osexp,E:/,no,mono,no,18,no,white,no,yes,768,legacy,31,79,E:/kg-subject-2.csv,legacy,Kafkaesque Koffka,3.2.5,0,h,NA,s,s,NA,h,456,NA,218280,16639,NA,456,2,legacy,1024,2,48000,-16,experiment,2,even,221031,402779,NA,465271,467520,468729,453430,2740,NA,468735,2749,386136,NA,468839,469300,468838,Flanker Task,95,69547,112,yes,1024
Congruent,HHHHH,84.95575221,84.95575221,620.1769912,620.1769912,black,legacy,legacy,legacy,0,uniform,1,undefined,1,h,0,0,0,112,112,112,112,0,0,112,0,0,0,112,112,112,9/9/18 20:05,600,The main experiment item,yes,FlankerTask.osexp,E:/,no,mono,no,18,no,white,no,yes,768,legacy,32,79,E:/kg-subject-2.csv,legacy,Kafkaesque Koffka,3.2.5,0,h,NA,s,s,NA,h,533,NA,218280,16639,NA,533,2,legacy,1024,2,48000,-16,experiment,2,even,221031,402779,NA,465271,469313,470534,453430,2740,NA,470539,2749,386136,NA,470644,471182,470643,Flanker Task,96,70080,113,yes,1024
Congruent,HHHHH,85.0877193,85.0877193,618.6140351,618.6140351,black,legacy,legacy,legacy,0,uniform,1,undefined,1,h,0,0,0,113,113,113,113,0,0,113,0,0,0,113,113,113,9/9/18 20:05,600,The main experiment item,yes,FlankerTask.osexp,E:/,no,mono,no,18,no,white,no,yes,768,legacy,33,79,E:/kg-subject-2.csv,legacy,Kafkaesque Koffka,3.2.5,0,h,NA,s,s,NA,h,442,NA,218280,16639,NA,442,2,legacy,1024,2,48000,-16,experiment,2,even,221031,402779,NA,465271,471194,472410,453430,2740,NA,472415,2749,386136,NA,472528,472975,472528,Flanker Task,97,70522,114,yes,1024
Incongruent,SSHSS,85.2173913,85.2173913,617.3130435,617.3130435,black,legacy,legacy,legacy,0,uniform,1,undefined,1,h,0,0,0,114,114,114,114,0,0,114,0,0,0,114,114,114,9/9/18 20:05,600,The main experiment item,yes,FlankerTask.osexp,E:/,no,mono,no,18,no,white,no,yes,768,legacy,34,79,E:/kg-subject-2.csv,legacy,Kafkaesque Koffka,3.2.5,0,h,NA,s,s,NA,h,469,NA,218280,16639,NA,469,2,legacy,1024,2,48000,-16,experiment,2,even,221031,402779,NA,465271,472988,474203,453430,2740,NA,474209,2749,386136,NA,474321,474794,474321,Flanker Task,98,70991,115,yes,1024
Congruent,SSSSS,85.34482759,85.34482759,618.1034483,618.1034483,black,legacy,legacy,legacy,0,uniform,1,undefined,1,s,0,0,0,115,115,115,115,0,0,115,0,0,0,115,115,115,9/9/18 20:05,600,The main experiment item,yes,FlankerTask.osexp,E:/,no,mono,no,18,no,white,no,yes,768,legacy,35,79,E:/kg-subject-2.csv,legacy,Kafkaesque Koffka,3.2.5,0,s,NA,s,s,NA,s,709,NA,218280,16639,NA,709,2,legacy,1024,2,48000,-16,experiment,2,even,221031,402779,NA,465271,474807,476021,453430,2740,NA,476026,2749,386136,NA,476138,476852,476138,Flanker Task,99,71700,116,yes,1024
Incongruent,HHSHH,85.47008547,85.47008547,617.5213675,617.5213675,black,legacy,legacy,legacy,0,uniform,1,undefined,1,s,0,0,0,116,116,116,116,0,0,116,0,0,0,116,116,116,9/9/18 20:05,600,The main experiment item,yes,FlankerTask.osexp,E:/,no,mono,no,18,no,white,no,yes,768,legacy,36,79,E:/kg-subject-2.csv,legacy,Kafkaesque Koffka,3.2.5,0,s,NA,s,s,NA,s,550,NA,218280,16639,NA,550,2,legacy,1024,2,48000,-16,experiment,2,even,221031,402779,NA,476867,477370,478563,453430,2740,NA,478568,2749,386136,NA,478680,479235,478680,Flanker Task,100,72250,117,yes,1024
Incongruent,SSHSS,85.59322034,85.59322034,618.3644068,618.3644068,black,legacy,legacy,legacy,0,uniform,1,undefined,1,h,0,0,0,117,117,117,117,0,0,117,0,0,0,117,117,117,9/9/18 20:05,600,The main experiment item,yes,FlankerTask.osexp,E:/,no,mono,no,18,no,white,no,yes,768,legacy,37,79,E:/kg-subject-2.csv,legacy,Kafkaesque Koffka,3.2.5,0,h,NA,s,s,NA,h,717,NA,218280,16639,NA,717,2,legacy,1024,2,48000,-16,experiment,2,even,221031,402779,NA,476867,479248,480439,453430,2740,NA,480444,2749,386136,NA,480558,481280,480557,Flanker Task,101,72967,118,yes,1024
Incongruent,HHSHH,85.71428571,85.71428571,618.9747899,618.9747899,black,legacy,legacy,legacy,0,uniform,1,undefined,1,s,0,0,0,118,118,118,118,0,0,118,0,0,0,118,118,118,9/9/18 20:05,600,The main experiment item,yes,FlankerTask.osexp,E:/,no,mono,no,18,no,white,no,yes,768,legacy,38,79,E:/kg-subject-2.csv,legacy,Kafkaesque Koffka,3.2.5,0,s,NA,s,s,NA,s,691,NA,218280,16639,NA,691,2,legacy,1024,2,48000,-16,experiment,2,even,221031,402779,NA,481296,481808,483020,453430,2740,NA,483026,2749,386136,NA,483130,483826,483130,Flanker Task,102,73658,119,yes,1024
Congruent,HHHHH,85.83333333,85.83333333,623.7583333,623.7583333,black,legacy,legacy,legacy,0,uniform,1,undefined,1,h,0,0,0,119,119,119,119,0,0,119,0,0,0,119,119,119,9/9/18 20:05,600,The main experiment item,yes,FlankerTask.osexp,E:/,no,mono,no,18,no,white,no,yes,768,legacy,39,79,E:/kg-subject-2.csv,legacy,Kafkaesque Koffka,3.2.5,0,h,NA,s,s,NA,h,1193,NA,218280,16639,NA,1193,2,legacy,1024,2,48000,-16,experiment,2,even,221031,402779,NA,483839,484342,485553,453430,2740,NA,485558,2749,386136,NA,485663,486861,485662,Flanker Task,103,74851,120,yes,1024
Congruent,SSSSS,85.95041322,85.95041322,624.2479339,624.2479339,black,legacy,legacy,legacy,0,uniform,1,undefined,1,s,0,0,0,120,120,120,120,0,0,120,0,0,0,120,120,120,9/9/18 20:05,600,The main experiment item,yes,FlankerTask.osexp,E:/,no,mono,no,18,no,white,no,yes,768,legacy,40,79,E:/kg-subject-2.csv,legacy,Kafkaesque Koffka,3.2.5,0,s,NA,s,s,NA,s,683,NA,218280,16639,NA,683,2,legacy,1024,2,48000,-16,experiment,2,even,221031,402779,NA,486874,487378,488590,453430,2740,NA,488595,2749,386136,NA,488708,489396,488708,Flanker Task,104,75534,121,yes,1024
Congruent,HHHHH,86.06557377,86.06557377,624.204918,624.204918,black,legacy,legacy,legacy,0,uniform,1,undefined,1,h,0,0,0,121,121,121,121,0,0,121,0,0,0,121,121,121,9/9/18 20:05,600,The main experiment item,yes,FlankerTask.osexp,E:/,no,mono,no,18,no,white,no,yes,768,legacy,41,79,E:/kg-subject-2.csv,legacy,Kafkaesque Koffka,3.2.5,0,h,NA,s,s,NA,h,619,NA,218280,16639,NA,619,2,legacy,1024,2,48000,-16,experiment,2,even,221031,402779,NA,489409,489921,491114,453430,2740,NA,491120,2749,386136,NA,491230,491854,491230,Flanker Task,105,76153,122,yes,1024
Incongruent,HHSHH,85.36585366,85.36585366,623.0894309,623.0894309,black,legacy,legacy,legacy,0,uniform,0,undefined,0,s,0,0,0,122,122,122,122,0,0,122,0,0,0,122,122,122,9/9/18 20:05,600,The main experiment item,yes,FlankerTask.osexp,E:/,no,mono,no,18,no,white,no,yes,768,legacy,42,79,E:/kg-subject-2.csv,legacy,Kafkaesque Koffka,3.2.5,0,h,NA,s,s,NA,h,487,NA,218280,16639,NA,487,2,legacy,1024,2,48000,-16,experiment,2,even,221031,402779,NA,491867,492379,493576,453430,2740,NA,493582,2749,386136,NA,493694,494186,493694,Flanker Task,105,76640,123,yes,1024
Congruent,SSSSS,85.48387097,85.48387097,623.8064516,623.8064516,black,legacy,legacy,legacy,0,uniform,1,undefined,1,s,0,0,0,123,123,123,123,0,0,123,0,0,0,123,123,123,9/9/18 20:05,600,The main experiment item,yes,FlankerTask.osexp,E:/,no,mono,no,18,no,white,no,yes,768,legacy,43,79,E:/kg-subject-2.csv,legacy,Kafkaesque Koffka,3.2.5,0,s,NA,s,s,NA,s,712,NA,218280,16639,NA,712,2,legacy,1024,2,48000,-16,experiment,2,even,221031,402779,NA,491867,494703,495914,494199,2740,NA,495920,2749,386136,NA,496032,496749,496032,Flanker Task,106,77352,124,yes,1024
Congruent,SSSSS,85.6,85.6,623.656,623.656,black,legacy,legacy,legacy,0,uniform,1,undefined,1,s,0,0,0,124,124,124,124,0,0,124,0,0,0,124,124,124,9/9/18 20:05,600,The main experiment item,yes,FlankerTask.osexp,E:/,no,mono,no,18,no,white,no,yes,768,legacy,44,79,E:/kg-subject-2.csv,legacy,Kafkaesque Koffka,3.2.5,0,s,NA,s,s,NA,s,605,NA,218280,16639,NA,605,2,legacy,1024,2,48000,-16,experiment,2,even,221031,402779,NA,496764,497276,498467,494199,2740,NA,498472,2749,386136,NA,498585,499195,498585,Flanker Task,107,77957,125,yes,1024
Congruent,SSSSS,85.71428571,85.71428571,620.8174603,620.8174603,black,legacy,legacy,legacy,0,uniform,1,undefined,1,s,0,0,0,125,125,125,125,0,0,125,0,0,0,125,125,125,9/9/18 20:05,600,The main experiment item,yes,FlankerTask.osexp,E:/,no,mono,no,18,no,white,no,yes,768,legacy,45,79,E:/kg-subject-2.csv,legacy,Kafkaesque Koffka,3.2.5,0,s,NA,s,s,NA,s,266,NA,218280,16639,NA,266,2,legacy,1024,2,48000,-16,experiment,2,even,221031,402779,NA,499208,499719,500911,494199,2740,NA,500917,2749,386136,NA,501029,501300,501029,Flanker Task,108,78223,126,yes,1024
Congruent,HHHHH,85.82677165,85.82677165,620.6692913,620.6692913,black,legacy,legacy,legacy,0,uniform,1,undefined,1,h,0,0,0,126,126,126,126,0,0,126,0,0,0,126,126,126,9/9/18 20:05,600,The main experiment item,yes,FlankerTask.osexp,E:/,no,mono,no,18,no,white,no,yes,768,legacy,46,79,E:/kg-subject-2.csv,legacy,Kafkaesque Koffka,3.2.5,0,h,NA,s,s,NA,h,602,NA,218280,16639,NA,602,2,legacy,1024,2,48000,-16,experiment,2,even,221031,402779,NA,499208,501314,502527,494199,2740,NA,502533,2749,386136,NA,502637,503244,502636,Flanker Task,109,78825,127,yes,1024
Incongruent,HHSHH,85.9375,85.9375,620.65625,620.65625,black,legacy,legacy,legacy,0,uniform,1,undefined,1,s,0,0,0,127,127,127,127,0,0,127,0,0,0,127,127,127,9/9/18 20:05,600,The main experiment item,yes,FlankerTask.osexp,E:/,no,mono,no,18,no,white,no,yes,768,legacy,47,79,E:/kg-subject-2.csv,legacy,Kafkaesque Koffka,3.2.5,0,s,NA,s,s,NA,s,619,NA,218280,16639,NA,619,2,legacy,1024,2,48000,-16,experiment,2,even,221031,402779,NA,503257,503761,504971,494199,2740,NA,504976,2749,386136,NA,505080,505704,505079,Flanker Task,110,79444,128,yes,1024
Congruent,SSSSS,86.04651163,86.04651163,625.4418605,625.4418605,black,legacy,legacy,legacy,0,uniform,1,undefined,1,s,0,0,0,128,128,128,128,0,0,128,0,0,0,128,128,128,9/9/18 20:05,600,The main experiment item,yes,FlankerTask.osexp,E:/,no,mono,no,18,no,white,no,yes,768,legacy,48,79,E:/kg-subject-2.csv,legacy,Kafkaesque Koffka,3.2.5,0,s,NA,s,s,NA,s,1238,NA,218280,16639,NA,1238,2,legacy,1024,2,48000,-16,experiment,2,even,221031,402779,NA,505716,506220,507452,494199,2740,NA,507458,2749,386136,NA,507570,508813,507570,Flanker Task,111,80682,129,yes,1024
Congruent,SSSSS,86.15384615,86.15384615,624.9076923,624.9076923,black,legacy,legacy,legacy,0,uniform,1,undefined,1,s,0,0,0,129,129,129,129,0,0,129,0,0,0,129,129,129,9/9/18 20:05,600,The main experiment item,yes,FlankerTask.osexp,E:/,no,mono,no,18,no,white,no,yes,768,legacy,49,79,E:/kg-subject-2.csv,legacy,Kafkaesque Koffka,3.2.5,0,s,NA,s,s,NA,s,556,NA,218280,16639,NA,556,2,legacy,1024,2,48000,-16,experiment,2,even,221031,402779,NA,508826,509338,510529,494199,2740,NA,510534,2749,386136,NA,510647,511209,510647,Flanker Task,112,81238,130,yes,1024
Congruent,HHHHH,86.25954198,86.25954198,624.8473282,624.8473282,black,legacy,legacy,legacy,0,uniform,1,undefined,1,h,0,0,0,130,130,130,130,0,0,130,0,0,0,130,130,130,9/9/18 20:05,600,The main experiment item,yes,FlankerTask.osexp,E:/,no,mono,no,18,no,white,no,yes,768,legacy,50,79,E:/kg-subject-2.csv,legacy,Kafkaesque Koffka,3.2.5,0,h,NA,s,s,NA,h,617,NA,218280,16639,NA,617,2,legacy,1024,2,48000,-16,experiment,2,even,221031,402779,NA,508826,511224,512414,494199,2740,NA,512420,2749,386136,NA,512530,513153,512529,Flanker Task,113,81855,131,yes,1024
Congruent,SSSSS,86.36363636,86.36363636,624.8787879,624.8787879,black,legacy,legacy,legacy,0,uniform,1,undefined,1,s,0,0,0,131,131,131,131,0,0,131,0,0,0,131,131,131,9/9/18 20:05,600,The main experiment item,yes,FlankerTask.osexp,E:/,no,mono,no,18,no,white,no,yes,768,legacy,51,79,E:/kg-subject-2.csv,legacy,Kafkaesque Koffka,3.2.5,0,s,NA,s,s,NA,s,629,NA,218280,16639,NA,629,2,legacy,1024,2,48000,-16,experiment,2,even,221031,402779,NA,513170,513682,514870,494199,2740,NA,514876,2749,386136,NA,514989,515623,514988,Flanker Task,114,82484,132,yes,1024
Incongruent,HHSHH,86.46616541,86.46616541,624.8345865,624.8345865,black,legacy,legacy,legacy,0,uniform,1,undefined,1,s,0,0,0,132,132,132,132,0,0,132,0,0,0,132,132,132,9/9/18 20:05,600,The main experiment item,yes,FlankerTask.osexp,E:/,no,mono,no,18,no,white,no,yes,768,legacy,52,79,E:/kg-subject-2.csv,legacy,Kafkaesque Koffka,3.2.5,0,s,NA,s,s,NA,s,619,NA,218280,16639,NA,619,2,legacy,1024,2,48000,-16,experiment,2,even,221031,402779,NA,515636,516148,517334,494199,2740,NA,517340,2749,386136,NA,517444,518069,517443,Flanker Task,115,83103,133,yes,1024
Incongruent,SSHSS,85.82089552,85.82089552,622.9029851,622.9029851,black,legacy,legacy,legacy,0,uniform,0,undefined,0,h,0,0,0,133,133,133,133,0,0,133,0,0,0,133,133,133,9/9/18 20:05,600,The main experiment item,yes,FlankerTask.osexp,E:/,no,mono,no,18,no,white,no,yes,768,legacy,53,79,E:/kg-subject-2.csv,legacy,Kafkaesque Koffka,3.2.5,0,s,NA,s,s,NA,s,366,NA,218280,16639,NA,366,2,legacy,1024,2,48000,-16,experiment,2,even,221031,402779,NA,518081,518594,519811,494199,2740,NA,519817,2749,386136,NA,519930,520302,519929,Flanker Task,115,83469,134,yes,1024
Incongruent,SSHSS,85.18518519,85.18518519,622.4962963,622.4962963,black,legacy,legacy,legacy,0,uniform,0,undefined,0,h,0,0,0,134,134,134,134,0,0,134,0,0,0,134,134,134,9/9/18 20:05,600,The main experiment item,yes,FlankerTask.osexp,E:/,no,mono,no,18,no,white,no,yes,768,legacy,54,79,E:/kg-subject-2.csv,legacy,Kafkaesque Koffka,3.2.5,0,s,NA,s,s,NA,s,568,NA,218280,16639,NA,568,2,legacy,1024,2,48000,-16,experiment,2,even,221031,402779,NA,518081,520825,522029,520314,2740,NA,522035,2749,386136,NA,522147,522721,522147,Flanker Task,115,84037,135,yes,1024
Congruent,SSSSS,85.29411765,85.29411765,622.4779412,622.4779412,black,legacy,legacy,legacy,0,uniform,1,undefined,1,s,0,0,0,135,135,135,135,0,0,135,0,0,0,135,135,135,9/9/18 20:05,600,The main experiment item,yes,FlankerTask.osexp,E:/,no,mono,no,18,no,white,no,yes,768,legacy,55,79,E:/kg-subject-2.csv,legacy,Kafkaesque Koffka,3.2.5,0,s,NA,s,s,NA,s,620,NA,218280,16639,NA,620,2,legacy,1024,2,48000,-16,experiment,2,even,221031,402779,NA,518081,523251,524447,522739,2740,NA,524452,2749,386136,NA,524565,525191,524565,Flanker Task,116,84657,136,yes,1024
Congruent,SSSSS,85.40145985,85.40145985,621.2335766,621.2335766,black,legacy,legacy,legacy,0,uniform,1,undefined,1,s,0,0,0,136,136,136,136,0,0,136,0,0,0,136,136,136,9/9/18 20:05,600,The main experiment item,yes,FlankerTask.osexp,E:/,no,mono,no,18,no,white,no,yes,768,legacy,56,79,E:/kg-subject-2.csv,legacy,Kafkaesque Koffka,3.2.5,0,s,NA,s,s,NA,s,452,NA,218280,16639,NA,452,2,legacy,1024,2,48000,-16,experiment,2,even,221031,402779,NA,525206,525718,526923,522739,2740,NA,526929,2749,386136,NA,527041,527498,527041,Flanker Task,117,85109,137,yes,1024
Incongruent,HHSHH,84.7826087,84.7826087,621.2753623,621.2753623,black,legacy,legacy,legacy,0,uniform,0,undefined,0,s,0,0,0,137,137,137,137,0,0,137,0,0,0,137,137,137,9/9/18 20:05,600,The main experiment item,yes,FlankerTask.osexp,E:/,no,mono,no,18,no,white,no,yes,768,legacy,57,79,E:/kg-subject-2.csv,legacy,Kafkaesque Koffka,3.2.5,0,h,NA,s,s,NA,h,627,NA,218280,16639,NA,627,2,legacy,1024,2,48000,-16,experiment,2,even,221031,402779,NA,525206,527511,528729,522739,2740,NA,528734,2749,386136,NA,528847,529480,528846,Flanker Task,117,85736,138,yes,1024
Incongruent,HHSHH,84.89208633,84.89208633,620.8201439,620.8201439,black,legacy,legacy,legacy,0,uniform,1,undefined,1,s,0,0,0,138,138,138,138,0,0,138,0,0,0,138,138,138,9/9/18 20:05,600,The main experiment item,yes,FlankerTask.osexp,E:/,no,mono,no,18,no,white,no,yes,768,legacy,58,79,E:/kg-subject-2.csv,legacy,Kafkaesque Koffka,3.2.5,0,s,NA,s,s,NA,s,558,NA,218280,16639,NA,558,2,legacy,1024,2,48000,-16,experiment,2,even,221031,402779,NA,530000,530503,531716,529492,2740,NA,531722,2749,386136,NA,531826,532389,531825,Flanker Task,118,86294,139,yes,1024
Congruent,SSSSS,85,85,619.8428571,619.8428571,black,legacy,legacy,legacy,0,uniform,1,undefined,1,s,0,0,0,139,139,139,139,0,0,139,0,0,0,139,139,139,9/9/18 20:05,600,The main experiment item,yes,FlankerTask.osexp,E:/,no,mono,no,18,no,white,no,yes,768,legacy,59,79,E:/kg-subject-2.csv,legacy,Kafkaesque Koffka,3.2.5,0,s,NA,s,s,NA,s,484,NA,218280,16639,NA,484,2,legacy,1024,2,48000,-16,experiment,2,even,221031,402779,NA,530000,532402,533613,529492,2740,NA,533619,2749,386136,NA,533731,534221,533731,Flanker Task,119,86778,140,yes,1024
Congruent,SSSSS,85.10638298,85.10638298,618.3262411,618.3262411,black,legacy,legacy,legacy,0,uniform,1,undefined,1,s,0,0,0,140,140,140,140,0,0,140,0,0,0,140,140,140,9/9/18 20:05,600,The main experiment item,yes,FlankerTask.osexp,E:/,no,mono,no,18,no,white,no,yes,768,legacy,60,79,E:/kg-subject-2.csv,legacy,Kafkaesque Koffka,3.2.5,0,s,NA,s,s,NA,s,406,NA,218280,16639,NA,406,2,legacy,1024,2,48000,-16,experiment,2,even,221031,402779,NA,530000,534236,535447,529492,2740,NA,535452,2749,386136,NA,535564,535976,535564,Flanker Task,120,87184,141,yes,1024
Incongruent,HHSHH,85.21126761,85.21126761,618.7676056,618.7676056,black,legacy,legacy,legacy,0,uniform,1,undefined,1,s,0,0,0,141,141,141,141,0,0,141,0,0,0,141,141,141,9/9/18 20:05,600,The main experiment item,yes,FlankerTask.osexp,E:/,no,mono,no,18,no,white,no,yes,768,legacy,61,79,E:/kg-subject-2.csv,legacy,Kafkaesque Koffka,3.2.5,0,s,NA,s,s,NA,s,681,NA,218280,16639,NA,681,2,legacy,1024,2,48000,-16,experiment,2,even,221031,402779,NA,530000,535989,537212,529492,2740,NA,537218,2749,386136,NA,537322,538009,537322,Flanker Task,121,87865,142,yes,1024
Incongruent,SSHSS,84.61538462,84.61538462,617.1958042,617.1958042,black,legacy,legacy,legacy,0,uniform,0,undefined,0,h,0,0,0,142,142,142,142,0,0,142,0,0,0,142,142,142,9/9/18 20:05,600,The main experiment item,yes,FlankerTask.osexp,E:/,no,mono,no,18,no,white,no,yes,768,legacy,62,79,E:/kg-subject-2.csv,legacy,Kafkaesque Koffka,3.2.5,0,s,NA,s,s,NA,s,394,NA,218280,16639,NA,394,2,legacy,1024,2,48000,-16,experiment,2,even,221031,402779,NA,538022,538533,539722,529492,2740,NA,539728,2749,386136,NA,539840,540239,539840,Flanker Task,121,88259,143,yes,1024
Incongruent,SSHSS,84.72222222,84.72222222,617.8958333,617.8958333,black,legacy,legacy,legacy,0,uniform,1,undefined,1,h,0,0,0,143,143,143,143,0,0,143,0,0,0,143,143,143,9/9/18 20:05,600,The main experiment item,yes,FlankerTask.osexp,E:/,no,mono,no,18,no,white,no,yes,768,legacy,63,79,E:/kg-subject-2.csv,legacy,Kafkaesque Koffka,3.2.5,0,h,NA,s,s,NA,h,718,NA,218280,16639,NA,718,2,legacy,1024,2,48000,-16,experiment,2,even,221031,402779,NA,538022,540758,541964,540254,2740,NA,541969,2749,386136,NA,542074,542798,542073,Flanker Task,122,88977,144,yes,1024
Congruent,SSSSS,84.82758621,84.82758621,618.1241379,618.1241379,black,legacy,legacy,legacy,0,uniform,1,undefined,1,s,0,0,0,144,144,144,144,0,0,144,0,0,0,144,144,144,9/9/18 20:05,600,The main experiment item,yes,FlankerTask.osexp,E:/,no,mono,no,18,no,white,no,yes,768,legacy,64,79,E:/kg-subject-2.csv,legacy,Kafkaesque Koffka,3.2.5,0,s,NA,s,s,NA,s,651,NA,218280,16639,NA,651,2,legacy,1024,2,48000,-16,experiment,2,even,221031,402779,NA,542811,543318,544516,540254,2740,NA,544522,2749,386136,NA,544634,545291,544634,Flanker Task,123,89628,145,yes,1024
Incongruent,HHSHH,84.93150685,84.93150685,615.9178082,615.9178082,black,legacy,legacy,legacy,0,uniform,1,undefined,1,s,0,0,0,145,145,145,145,0,0,145,0,0,0,145,145,145,9/9/18 20:05,600,The main experiment item,yes,FlankerTask.osexp,E:/,no,mono,no,18,no,white,no,yes,768,legacy,65,79,E:/kg-subject-2.csv,legacy,Kafkaesque Koffka,3.2.5,0,s,NA,s,s,NA,s,296,NA,218280,16639,NA,296,2,legacy,1024,2,48000,-16,experiment,2,even,221031,402779,NA,545304,545816,547007,540254,2740,NA,547012,2749,386136,NA,547125,547429,547125,Flanker Task,124,89924,146,yes,1024
Incongruent,SSHSS,84.3537415,84.3537415,614.5782313,614.5782313,black,legacy,legacy,legacy,0,uniform,0,undefined,0,h,0,0,0,146,146,146,146,0,0,146,0,0,0,146,146,146,9/9/18 20:05,600,The main experiment item,yes,FlankerTask.osexp,E:/,no,mono,no,18,no,white,no,yes,768,legacy,66,79,E:/kg-subject-2.csv,legacy,Kafkaesque Koffka,3.2.5,0,s,NA,s,s,NA,s,419,NA,218280,16639,NA,419,2,legacy,1024,2,48000,-16,experiment,2,even,221031,402779,NA,545304,547446,548659,540254,2740,NA,548665,2749,386136,NA,548770,549195,548769,Flanker Task,124,90343,147,yes,1024
Incongruent,HHSHH,84.45945946,84.45945946,614.4527027,614.4527027,black,legacy,legacy,legacy,0,uniform,1,undefined,1,s,0,0,0,147,147,147,147,0,0,147,0,0,0,147,147,147,9/9/18 20:05,600,The main experiment item,yes,FlankerTask.osexp,E:/,no,mono,no,18,no,white,no,yes,768,legacy,67,79,E:/kg-subject-2.csv,legacy,Kafkaesque Koffka,3.2.5,0,s,NA,s,s,NA,s,596,NA,218280,16639,NA,596,2,legacy,1024,2,48000,-16,experiment,2,even,221031,402779,NA,545304,549720,550925,549207,2740,NA,550931,2749,386136,NA,551035,551637,551034,Flanker Task,125,90939,148,yes,1024
Incongruent,HHSHH,84.56375839,84.56375839,614.1677852,614.1677852,black,legacy,legacy,legacy,0,uniform,1,undefined,1,s,0,0,0,148,148,148,148,0,0,148,0,0,0,148,148,148,9/9/18 20:05,600,The main experiment item,yes,FlankerTask.osexp,E:/,no,mono,no,18,no,white,no,yes,768,legacy,68,79,E:/kg-subject-2.csv,legacy,Kafkaesque Koffka,3.2.5,0,s,NA,s,s,NA,s,572,NA,218280,16639,NA,572,2,legacy,1024,2,48000,-16,experiment,2,even,221031,402779,NA,545304,551662,552876,549207,2740,NA,552881,2749,386136,NA,552993,553571,552993,Flanker Task,126,91511,149,yes,1024
Congruent,HHHHH,84.66666667,84.66666667,614.32,614.32,black,legacy,legacy,legacy,0,uniform,1,undefined,1,h,0,0,0,149,149,149,149,0,0,149,0,0,0,149,149,149,9/9/18 20:05,600,The main experiment item,yes,FlankerTask.osexp,E:/,no,mono,no,18,no,white,no,yes,768,legacy,69,79,E:/kg-subject-2.csv,legacy,Kafkaesque Koffka,3.2.5,0,h,NA,s,s,NA,h,637,NA,218280,16639,NA,637,2,legacy,1024,2,48000,-16,experiment,2,even,221031,402779,NA,545304,553587,554779,549207,2740,NA,554785,2749,386136,NA,554896,555539,554896,Flanker Task,127,92148,150,yes,1024
Congruent,HHHHH,84.76821192,84.76821192,613.2582781,613.2582781,black,legacy,legacy,legacy,0,uniform,1,undefined,1,h,0,0,0,150,150,150,150,0,0,150,0,0,0,150,150,150,9/9/18 20:05,600,The main experiment item,yes,FlankerTask.osexp,E:/,no,mono,no,18,no,white,no,yes,768,legacy,70,79,E:/kg-subject-2.csv,legacy,Kafkaesque Koffka,3.2.5,0,h,NA,s,s,NA,h,454,NA,218280,16639,NA,454,2,legacy,1024,2,48000,-16,experiment,2,even,221031,402779,NA,555552,556064,557252,549207,2740,NA,557260,2749,386136,NA,557374,557834,557372,Flanker Task,128,92602,151,yes,1024
Incongruent,SSHSS,84.86842105,84.86842105,612.0328947,612.0328947,black,legacy,legacy,legacy,0,uniform,1,undefined,1,h,0,0,0,151,151,151,151,0,0,151,0,0,0,151,151,151,9/9/18 20:05,600,The main experiment item,yes,FlankerTask.osexp,E:/,no,mono,no,18,no,white,no,yes,768,legacy,71,79,E:/kg-subject-2.csv,legacy,Kafkaesque Koffka,3.2.5,0,h,NA,s,s,NA,h,427,NA,218280,16639,NA,427,2,legacy,1024,2,48000,-16,experiment,2,even,221031,402779,NA,555552,557847,559039,549207,2740,NA,559044,2749,386136,NA,559156,559589,559156,Flanker Task,129,93029,152,yes,1024
Congruent,SSSSS,84.96732026,84.96732026,611.5620915,611.5620915,black,legacy,legacy,legacy,0,uniform,1,undefined,1,s,0,0,0,152,152,152,152,0,0,152,0,0,0,152,152,152,9/9/18 20:05,600,The main experiment item,yes,FlankerTask.osexp,E:/,no,mono,no,18,no,white,no,yes,768,legacy,72,79,E:/kg-subject-2.csv,legacy,Kafkaesque Koffka,3.2.5,0,s,NA,s,s,NA,s,540,NA,218280,16639,NA,540,2,legacy,1024,2,48000,-16,experiment,2,even,221031,402779,NA,555552,559604,560806,549207,2740,NA,560812,2749,386136,NA,560924,561470,560924,Flanker Task,130,93569,153,yes,1024
Congruent,HHHHH,85.06493506,85.06493506,609.8181818,609.8181818,black,legacy,legacy,legacy,0,uniform,1,undefined,1,h,0,0,0,153,153,153,153,0,0,153,0,0,0,153,153,153,9/9/18 20:05,600,The main experiment item,yes,FlankerTask.osexp,E:/,no,mono,no,18,no,white,no,yes,768,legacy,73,79,E:/kg-subject-2.csv,legacy,Kafkaesque Koffka,3.2.5,0,h,NA,s,s,NA,h,343,NA,218280,16639,NA,343,2,legacy,1024,2,48000,-16,experiment,2,even,221031,402779,NA,555552,561483,562671,549207,2740,NA,562677,2749,386136,NA,562789,563138,562789,Flanker Task,131,93912,154,yes,1024
Incongruent,HHSHH,85.16129032,85.16129032,608.283871,608.283871,black,legacy,legacy,legacy,0,uniform,1,undefined,1,s,0,0,0,154,154,154,154,0,0,154,0,0,0,154,154,154,9/9/18 20:05,600,The main experiment item,yes,FlankerTask.osexp,E:/,no,mono,no,18,no,white,no,yes,768,legacy,74,79,E:/kg-subject-2.csv,legacy,Kafkaesque Koffka,3.2.5,0,s,NA,s,s,NA,s,372,NA,218280,16639,NA,372,2,legacy,1024,2,48000,-16,experiment,2,even,221031,402779,NA,555552,563151,564373,549207,2740,NA,564379,2749,386136,NA,564490,564868,564490,Flanker Task,132,94284,155,yes,1024
Congruent,SSSSS,85.25641026,85.25641026,607.6346154,607.6346154,black,legacy,legacy,legacy,0,uniform,1,undefined,1,s,0,0,0,155,155,155,155,0,0,155,0,0,0,155,155,155,9/9/18 20:05,600,The main experiment item,yes,FlankerTask.osexp,E:/,no,mono,no,18,no,white,no,yes,768,legacy,75,79,E:/kg-subject-2.csv,legacy,Kafkaesque Koffka,3.2.5,0,s,NA,s,s,NA,s,507,NA,218280,16639,NA,507,2,legacy,1024,2,48000,-16,experiment,2,even,221031,402779,NA,555552,564881,566101,549207,2740,NA,566107,2749,386136,NA,566211,566724,566210,Flanker Task,133,94791,156,yes,1024
Incongruent,HHSHH,85.35031847,85.35031847,606.7388535,606.7388535,black,legacy,legacy,legacy,0,uniform,1,undefined,1,s,0,0,0,156,156,156,156,0,0,156,0,0,0,156,156,156,9/9/18 20:05,600,The main experiment item,yes,FlankerTask.osexp,E:/,no,mono,no,18,no,white,no,yes,768,legacy,76,79,E:/kg-subject-2.csv,legacy,Kafkaesque Koffka,3.2.5,0,s,NA,s,s,NA,s,467,NA,218280,16639,NA,467,2,legacy,1024,2,48000,-16,experiment,2,even,221031,402779,NA,555552,566737,567951,549207,2740,NA,567956,2749,386136,NA,568068,568541,568068,Flanker Task,134,95258,157,yes,1024
Incongruent,SSHSS,84.81012658,84.81012658,605.2974684,605.2974684,black,legacy,legacy,legacy,0,uniform,0,undefined,0,h,0,0,0,157,157,157,157,0,0,157,0,0,0,157,157,157,9/9/18 20:05,600,The main experiment item,yes,FlankerTask.osexp,E:/,no,mono,no,18,no,white,no,yes,768,legacy,77,79,E:/kg-subject-2.csv,legacy,Kafkaesque Koffka,3.2.5,0,s,NA,s,s,NA,s,379,NA,218280,16639,NA,379,2,legacy,1024,2,48000,-16,experiment,2,even,221031,402779,NA,555552,568556,569769,549207,2740,NA,569775,2749,386136,NA,569887,570272,569887,Flanker Task,134,95637,158,yes,1024
Incongruent,HHSHH,84.90566038,84.90566038,604.8867925,604.8867925,black,legacy,legacy,legacy,0,uniform,1,undefined,1,s,0,0,0,158,158,158,158,0,0,158,0,0,0,158,158,158,9/9/18 20:05,600,The main experiment item,yes,FlankerTask.osexp,E:/,no,mono,no,18,no,white,no,yes,768,legacy,78,79,E:/kg-subject-2.csv,legacy,Kafkaesque Koffka,3.2.5,0,s,NA,s,s,NA,s,540,NA,218280,16639,NA,540,2,legacy,1024,2,48000,-16,experiment,2,even,221031,402779,NA,555552,570794,572009,570286,2740,NA,572015,2749,386136,NA,572119,572666,572119,Flanker Task,135,96177,159,yes,1024
Incongruent,HHSHH,85,85,604.0125,604.0125,black,legacy,legacy,legacy,0,uniform,1,undefined,1,s,0,0,0,159,159,159,159,0,0,159,0,0,0,159,159,159,9/9/18 20:05,600,The main experiment item,yes,FlankerTask.osexp,E:/,no,mono,no,18,no,white,no,yes,768,legacy,79,79,E:/kg-subject-2.csv,legacy,Kafkaesque Koffka,3.2.5,0,s,NA,s,s,NA,s,465,NA,218280,16639,NA,465,2,legacy,1024,2,48000,-16,experiment,2,even,221031,402779,NA,555552,572679,573877,570286,2740,NA,573883,2749,386136,NA,573987,574459,573987,Flanker Task,136,96642,160,yes,1024
Incongruent,SSHSS,85.0931677,85.0931677,604.6149068,604.6149068,black,legacy,legacy,legacy,0,uniform,1,undefined,1,h,0,0,0,160,160,160,160,0,0,160,0,0,0,160,160,160,9/9/18 20:05,300,The main experiment item,yes,FlankerTask.osexp,E:/,no,mono,no,18,no,white,no,yes,768,legacy,0,79,E:/kg-subject-2.csv,legacy,Kafkaesque Koffka,3.2.5,0,h,NA,s,s,s,h,701,NA,218280,16639,22265,701,2,legacy,1024,2,48000,-16,experiment,2,even,221031,402779,597811,555552,574472,598026,570286,2740,NA,598030,2749,386136,575540,598134,598842,598134,Flanker Task,137,97343,161,yes,1024
Congruent,HHHHH,85.18518519,85.18518519,603.4506173,603.4506173,black,legacy,legacy,legacy,0,uniform,1,undefined,1,h,0,0,0,161,161,161,161,0,0,161,0,0,0,161,161,161,9/9/18 20:05,300,The main experiment item,yes,FlankerTask.osexp,E:/,no,mono,no,18,no,white,no,yes,768,legacy,1,79,E:/kg-subject-2.csv,legacy,Kafkaesque Koffka,3.2.5,0,h,NA,s,s,s,h,416,NA,218280,16639,22265,416,2,legacy,1024,2,48000,-16,experiment,2,even,221031,402779,597811,598856,599360,600579,570286,2740,NA,600584,2749,386136,575540,600688,601111,600688,Flanker Task,138,97759,162,yes,1024
Congruent,SSSSS,84.66257669,84.66257669,602.0306748,602.0306748,black,legacy,legacy,legacy,0,uniform,0,undefined,0,s,0,0,0,162,162,162,162,0,0,162,0,0,0,162,162,162,9/9/18 20:05,300,The main experiment item,yes,FlankerTask.osexp,E:/,no,mono,no,18,no,white,no,yes,768,legacy,2,79,E:/kg-subject-2.csv,legacy,Kafkaesque Koffka,3.2.5,0,h,NA,s,s,s,h,372,NA,218280,16639,22265,372,2,legacy,1024,2,48000,-16,experiment,2,even,221031,402779,597811,601125,601629,602831,570286,2740,NA,602836,2749,386136,575540,602940,603318,602940,Flanker Task,138,98131,163,yes,1024
Congruent,SSSSS,84.75609756,84.75609756,600.4207317,600.4207317,black,legacy,legacy,legacy,0,uniform,1,undefined,1,s,0,0,0,163,163,163,163,0,0,163,0,0,0,163,163,163,9/9/18 20:05,300,The main experiment item,yes,FlankerTask.osexp,E:/,no,mono,no,18,no,white,no,yes,768,legacy,3,79,E:/kg-subject-2.csv,legacy,Kafkaesque Koffka,3.2.5,0,s,NA,s,s,s,s,338,NA,218280,16639,22265,338,2,legacy,1024,2,48000,-16,experiment,2,even,221031,402779,597811,603835,604338,605558,603330,2740,NA,605564,2749,386136,575540,605668,606013,605667,Flanker Task,139,98469,164,yes,1024
Congruent,SSSSS,84.84848485,84.84848485,598.4787879,598.4787879,black,legacy,legacy,legacy,0,uniform,1,undefined,1,s,0,0,0,164,164,164,164,0,0,164,0,0,0,164,164,164,9/9/18 20:05,300,The main experiment item,yes,FlankerTask.osexp,E:/,no,mono,no,18,no,white,no,yes,768,legacy,4,79,E:/kg-subject-2.csv,legacy,Kafkaesque Koffka,3.2.5,0,s,NA,s,s,s,s,280,NA,218280,16639,22265,280,2,legacy,1024,2,48000,-16,experiment,2,even,221031,402779,597811,606025,606538,607738,603330,2740,NA,607743,2749,386136,575540,607855,608141,607855,Flanker Task,140,98749,165,yes,1024
Congruent,SSSSS,84.93975904,84.93975904,596.6987952,596.6987952,black,legacy,legacy,legacy,0,uniform,1,undefined,1,s,0,0,0,165,165,165,165,0,0,165,0,0,0,165,165,165,9/9/18 20:05,300,The main experiment item,yes,FlankerTask.osexp,E:/,no,mono,no,18,no,white,no,yes,768,legacy,5,79,E:/kg-subject-2.csv,legacy,Kafkaesque Koffka,3.2.5,0,s,NA,s,s,s,s,303,NA,218280,16639,22265,303,2,legacy,1024,2,48000,-16,experiment,2,even,221031,402779,597811,606025,608157,609381,603330,2740,NA,609386,2749,386136,575540,609490,609800,609489,Flanker Task,141,99052,166,yes,1024
Congruent,SSSSS,85.02994012,85.02994012,595.0718563,595.0718563,black,legacy,legacy,legacy,0,uniform,1,undefined,1,s,0,0,0,166,166,166,166,0,0,166,0,0,0,166,166,166,9/9/18 20:05,300,The main experiment item,yes,FlankerTask.osexp,E:/,no,mono,no,18,no,white,no,yes,768,legacy,6,79,E:/kg-subject-2.csv,legacy,Kafkaesque Koffka,3.2.5,0,s,NA,s,s,s,s,325,NA,218280,16639,22265,325,2,legacy,1024,2,48000,-16,experiment,2,even,221031,402779,597811,609812,610324,611518,603330,2740,NA,611523,2749,386136,575540,611636,611968,611635,Flanker Task,142,99377,167,yes,1024
Congruent,HHHHH,84.52380952,84.52380952,592.6130952,592.6130952,black,legacy,legacy,legacy,0,uniform,0,undefined,0,h,0,0,0,167,167,167,167,0,0,167,0,0,0,167,167,167,9/9/18 20:05,300,The main experiment item,yes,FlankerTask.osexp,E:/,no,mono,no,18,no,white,no,yes,768,legacy,7,79,E:/kg-subject-2.csv,legacy,Kafkaesque Koffka,3.2.5,0,s,NA,s,s,s,s,182,NA,218280,16639,22265,182,2,legacy,1024,2,48000,-16,experiment,2,even,221031,402779,597811,611984,612490,613701,603330,2740,NA,613707,2749,386136,575540,613811,613999,613811,Flanker Task,142,99559,168,yes,1024
Incongruent,SSHSS,84.61538462,84.61538462,590.0710059,590.0710059,black,legacy,legacy,legacy,0,uniform,1,undefined,1,h,0,0,0,168,168,168,168,0,0,168,0,0,0,168,168,168,9/9/18 20:05,300,The main experiment item,yes,FlankerTask.osexp,E:/,no,mono,no,18,no,white,no,yes,768,legacy,8,79,E:/kg-subject-2.csv,legacy,Kafkaesque Koffka,3.2.5,0,h,NA,s,s,s,h,163,NA,218280,16639,22265,163,2,legacy,1024,2,48000,-16,experiment,2,even,221031,402779,597811,611984,614516,615731,614011,2740,NA,615737,2749,386136,575540,615847,616016,615847,Flanker Task,143,99722,169,yes,1024
Congruent,HHHHH,84.11764706,84.11764706,588.3058824,588.3058824,black,legacy,legacy,legacy,0,uniform,0,undefined,0,h,0,0,0,169,169,169,169,0,0,169,0,0,0,169,169,169,9/9/18 20:05,300,The main experiment item,yes,FlankerTask.osexp,E:/,no,mono,no,18,no,white,no,yes,768,legacy,9,79,E:/kg-subject-2.csv,legacy,Kafkaesque Koffka,3.2.5,0,s,NA,s,s,s,s,290,NA,218280,16639,22265,290,2,legacy,1024,2,48000,-16,experiment,2,even,221031,402779,597811,611984,616029,617219,614011,2740,NA,617224,2749,386136,575540,617337,617634,617337,Flanker Task,143,100012,170,yes,1024
Incongruent,HHSHH,83.62573099,83.62573099,585.8187135,585.8187135,black,legacy,legacy,legacy,0,uniform,0,undefined,0,s,0,0,0,170,170,170,170,0,0,170,0,0,0,170,170,170,9/9/18 20:05,300,The main experiment item,yes,FlankerTask.osexp,E:/,no,mono,no,18,no,white,no,yes,768,legacy,10,79,E:/kg-subject-2.csv,legacy,Kafkaesque Koffka,3.2.5,0,h,NA,s,s,s,h,163,NA,218280,16639,22265,163,2,legacy,1024,2,48000,-16,experiment,2,even,221031,402779,597811,611984,618160,619372,617648,2740,NA,619377,2749,386136,575540,619482,619652,619482,Flanker Task,143,100175,171,yes,1024
Congruent,SSSSS,83.72093023,83.72093023,583.5465116,583.5465116,black,legacy,legacy,legacy,0,uniform,1,undefined,1,s,0,0,0,171,171,171,171,0,0,171,0,0,0,171,171,171,9/9/18 20:05,300,The main experiment item,yes,FlankerTask.osexp,E:/,no,mono,no,18,no,white,no,yes,768,legacy,11,79,E:/kg-subject-2.csv,legacy,Kafkaesque Koffka,3.2.5,0,s,NA,s,s,s,s,195,NA,218280,16639,22265,195,2,legacy,1024,2,48000,-16,experiment,2,even,221031,402779,597811,611984,620168,621357,619664,2740,NA,621363,2749,386136,575540,621467,621669,621466,Flanker Task,144,100370,172,yes,1024
Congruent,SSSSS,83.8150289,83.8150289,582,582,black,legacy,legacy,legacy,0,uniform,1,undefined,1,s,0,0,0,172,172,172,172,0,0,172,0,0,0,172,172,172,9/9/18 20:05,300,The main experiment item,yes,FlankerTask.osexp,E:/,no,mono,no,18,no,white,no,yes,768,legacy,12,79,E:/kg-subject-2.csv,legacy,Kafkaesque Koffka,3.2.5,0,s,NA,s,s,s,s,316,NA,218280,16639,22265,316,2,legacy,1024,2,48000,-16,experiment,2,even,221031,402779,597811,611984,621682,622883,619664,2740,NA,622889,2749,386136,575540,623001,623324,623001,Flanker Task,145,100686,173,yes,1024
Incongruent,SSHSS,83.33333333,83.33333333,579.7356322,579.7356322,black,legacy,legacy,legacy,0,uniform,0,undefined,0,h,0,0,0,173,173,173,173,0,0,173,0,0,0,173,173,173,9/9/18 20:05,300,The main experiment item,yes,FlankerTask.osexp,E:/,no,mono,no,18,no,white,no,yes,768,legacy,13,79,E:/kg-subject-2.csv,legacy,Kafkaesque Koffka,3.2.5,0,s,NA,s,s,s,s,188,NA,218280,16639,22265,188,2,legacy,1024,2,48000,-16,experiment,2,even,221031,402779,597811,623337,623841,625053,619664,2740,NA,625059,2749,386136,575540,625172,625367,625171,Flanker Task,145,100874,174,yes,1024
Incongruent,HHSHH,82.85714286,82.85714286,577.6628571,577.6628571,black,legacy,legacy,legacy,0,uniform,0,undefined,0,s,0,0,0,174,174,174,174,0,0,174,0,0,0,174,174,174,9/9/18 20:05,300,The main experiment item,yes,FlankerTask.osexp,E:/,no,mono,no,18,no,white,no,yes,768,legacy,14,79,E:/kg-subject-2.csv,legacy,Kafkaesque Koffka,3.2.5,0,h,NA,s,s,s,h,217,NA,218280,16639,22265,217,2,legacy,1024,2,48000,-16,experiment,2,even,221031,402779,597811,623337,625889,627113,625385,2740,NA,627119,2749,386136,575540,627223,627447,627223,Flanker Task,145,101091,175,yes,1024
Incongruent,HHSHH,82.95454545,82.95454545,576.8068182,576.8068182,black,legacy,legacy,legacy,0,uniform,1,undefined,1,s,0,0,0,175,175,175,175,0,0,175,0,0,0,175,175,175,9/9/18 20:05,300,The main experiment item,yes,FlankerTask.osexp,E:/,no,mono,no,18,no,white,no,yes,768,legacy,15,79,E:/kg-subject-2.csv,legacy,Kafkaesque Koffka,3.2.5,0,s,NA,s,s,s,s,427,NA,218280,16639,22265,427,2,legacy,1024,2,48000,-16,experiment,2,even,221031,402779,597811,623337,627962,629177,627459,2740,NA,629183,2749,386136,575540,629295,629729,629295,Flanker Task,146,101518,176,yes,1024
Incongruent,SSHSS,82.48587571,82.48587571,576.1920904,576.1920904,black,legacy,legacy,legacy,0,uniform,0,undefined,0,h,0,0,0,176,176,176,176,0,0,176,0,0,0,176,176,176,9/9/18 20:05,300,The main experiment item,yes,FlankerTask.osexp,E:/,no,mono,no,18,no,white,no,yes,768,legacy,16,79,E:/kg-subject-2.csv,legacy,Kafkaesque Koffka,3.2.5,0,s,NA,s,s,s,s,468,NA,218280,16639,22265,468,2,legacy,1024,2,48000,-16,experiment,2,even,221031,402779,597811,629742,630254,631461,627459,2740,NA,631466,2749,386136,575540,631572,632047,631571,Flanker Task,146,101986,177,yes,1024
Congruent,HHHHH,82.58426966,82.58426966,574.7865169,574.7865169,black,legacy,legacy,legacy,0,uniform,1,undefined,1,h,0,0,0,177,177,177,177,0,0,177,0,0,0,177,177,177,9/9/18 20:05,300,The main experiment item,yes,FlankerTask.osexp,E:/,no,mono,no,18,no,white,no,yes,768,legacy,17,79,E:/kg-subject-2.csv,legacy,Kafkaesque Koffka,3.2.5,0,h,NA,s,s,s,h,326,NA,218280,16639,22265,326,2,legacy,1024,2,48000,-16,experiment,2,even,221031,402779,597811,632571,633075,634291,632059,2740,NA,634296,2749,386136,575540,634409,634742,634408,Flanker Task,147,102312,178,yes,1024
Incongruent,HHSHH,82.12290503,82.12290503,573.5586592,573.5586592,black,legacy,legacy,legacy,0,uniform,0,undefined,0,s,0,0,0,178,178,178,178,0,0,178,0,0,0,178,178,178,9/9/18 20:05,300,The main experiment item,yes,FlankerTask.osexp,E:/,no,mono,no,18,no,white,no,yes,768,legacy,18,79,E:/kg-subject-2.csv,legacy,Kafkaesque Koffka,3.2.5,0,h,NA,s,s,s,h,355,NA,218280,16639,22265,355,2,legacy,1024,2,48000,-16,experiment,2,even,221031,402779,597811,634755,635268,636480,632059,2740,NA,636485,2749,386136,575540,636597,636959,636597,Flanker Task,147,102667,179,yes,1024
Incongruent,HHSHH,82.22222222,82.22222222,571.8833333,571.8833333,black,legacy,legacy,legacy,0,uniform,1,undefined,1,s,0,0,0,179,179,179,179,0,0,179,0,0,0,179,179,179,9/9/18 20:05,300,The main experiment item,yes,FlankerTask.osexp,E:/,no,mono,no,18,no,white,no,yes,768,legacy,19,79,E:/kg-subject-2.csv,legacy,Kafkaesque Koffka,3.2.5,0,s,NA,s,s,s,s,272,NA,218280,16639,22265,272,2,legacy,1024,2,48000,-16,experiment,2,even,221031,402779,597811,637476,637980,639189,636972,2740,NA,639195,2749,386136,575540,639299,639578,639299,Flanker Task,148,102939,180,yes,1024
Congruent,HHHHH,82.32044199,82.32044199,570.679558,570.679558,black,legacy,legacy,legacy,0,uniform,1,undefined,1,h,0,0,0,180,180,180,180,0,0,180,0,0,0,180,180,180,9/9/18 20:05,300,The main experiment item,yes,FlankerTask.osexp,E:/,no,mono,no,18,no,white,no,yes,768,legacy,20,79,E:/kg-subject-2.csv,legacy,Kafkaesque Koffka,3.2.5,0,h,NA,s,s,s,h,354,NA,218280,16639,22265,354,2,legacy,1024,2,48000,-16,experiment,2,even,221031,402779,597811,637476,639590,640780,636972,2740,NA,640784,2749,386136,575540,640896,641257,640895,Flanker Task,149,103293,181,yes,1024
Congruent,HHHHH,82.41758242,82.41758242,570.1538462,570.1538462,black,legacy,legacy,legacy,0,uniform,1,undefined,1,h,0,0,0,181,181,181,181,0,0,181,0,0,0,181,181,181,9/9/18 20:05,300,The main experiment item,yes,FlankerTask.osexp,E:/,no,mono,no,18,no,white,no,yes,768,legacy,21,79,E:/kg-subject-2.csv,legacy,Kafkaesque Koffka,3.2.5,0,h,NA,s,s,s,h,475,NA,218280,16639,22265,475,2,legacy,1024,2,48000,-16,experiment,2,even,221031,402779,597811,641271,641776,642997,636972,2740,NA,643002,2749,386136,575540,643106,643588,643106,Flanker Task,150,103768,182,yes,1024
Incongruent,HHSHH,81.96721311,81.96721311,568.8251366,568.8251366,black,legacy,legacy,legacy,0,uniform,0,undefined,0,s,0,0,0,182,182,182,182,0,0,182,0,0,0,182,182,182,9/9/18 20:05,300,The main experiment item,yes,FlankerTask.osexp,E:/,no,mono,no,18,no,white,no,yes,768,legacy,22,79,E:/kg-subject-2.csv,legacy,Kafkaesque Koffka,3.2.5,0,h,NA,s,s,s,h,327,NA,218280,16639,22265,327,2,legacy,1024,2,48000,-16,experiment,2,even,221031,402779,597811,643602,644111,645322,636972,2740,NA,645328,2749,386136,575540,645435,645768,645435,Flanker Task,150,104095,183,yes,1024
