"acc","accuracy","average_response_time","avg_rt","background","bidi","canvas_backend","clock_backend","color_backend","compensation","condition","coordinates","correct","correct_Instructions1","correct_keyboard_response","correct_response","count_Block1","count_Block2","count_Block3","count_ErrorFeedback","count_Faster","count_Finish","count_Fixation","count_ISI","count_Instructions1","count_Instructions2","count_Instructions3","count_Sequence","count_Stimulus","count_experiment","count_keyboard_response","count_logger","datetime","deadline","description","disable_garbage_collection","experiment_file","experiment_path","font_bold","font_family","font_italic","font_size","font_underline","foreground","form_clicks","fullscreen","height","keyboard_backend","live_row","live_row_Block1","logfile","mouse_backend","opensesame_codename","opensesame_version","repeat_cycle","response","response_Finish","response_Instructions1","response_Instructions2","response_Instructions3","response_keyboard_response","response_time","response_time_Finish","response_time_Instructions1","response_time_Instructions2","response_time_Instructions3","response_time_keyboard_response","round_decimals","sampler_backend","sound_buf_size","sound_channels","sound_freq","sound_sample_size","start","stimulus","subject_nr","subject_parity","time_Block1","time_Block2","time_Block3","time_ErrorFeedback","time_Faster","time_Finish","time_Fixation","time_ISI","time_Instructions1","time_Instructions2","time_Instructions3","time_Sequence","time_Stimulus","time_experiment","time_keyboard_response","time_logger","title","total_correct","total_response_time","total_responses","uniform_coordinates","width"
"100","100","1171","1171","black","no","legacy","legacy","legacy","0","incongruent","uniform","1","undefined","1","s","0","0","0","0","0","0","0","0","0","0","0","0","0","0","0","0","09/04/18 09:30:40","1500","The main experiment item","yes","FlankerTask.osexp","C:/Users/Anabel/Desktop","no","mono","no","18","no","white","no","yes","768","legacy","0","0","C:/Users/Anabel/Desktop/AW-subject-2.csv","legacy","Jazzy James","3.1.9","0","s","NA","s","NA","NA","s","1171","NA","31824","NA","NA","1171","2","legacy","1024","2","48000","-16","experiment","HHSHH","2","even","33412","NA","NA","NA","NA","NA","33469","NA","1586","NA","NA","33467","33570","1581","33570","34742","Flanker Task","1","1171","1","yes","1024"
"100","100","893","893","black","no","legacy","legacy","legacy","0","congruent","uniform","1","undefined","1","s","0","0","0","1","1","0","1","1","0","0","0","1","1","0","1","1","09/04/18 09:30:40","1500","The main experiment item","yes","FlankerTask.osexp","C:/Users/Anabel/Desktop","no","mono","no","18","no","white","no","yes","768","legacy","1","1","C:/Users/Anabel/Desktop/AW-subject-2.csv","legacy","Jazzy James","3.1.9","0","s","NA","s","NA","NA","s","615","NA","31824","NA","NA","615","2","legacy","1024","2","48000","-16","experiment","SSSSS","2","even","33412","NA","NA","NA","NA","NA","35862","34810","1586","NA","NA","35860","35963","1581","35963","36579","Flanker Task","2","1786","2","yes","1024"
"100","100","774.333333333","774.333333333","black","no","legacy","legacy","legacy","0","congruent","uniform","1","undefined","1","s","0","0","0","2","2","0","2","2","0","0","0","2","2","0","2","2","09/04/18 09:30:40","1500","The main experiment item","yes","FlankerTask.osexp","C:/Users/Anabel/Desktop","no","mono","no","18","no","white","no","yes","768","legacy","2","2","C:/Users/Anabel/Desktop/AW-subject-2.csv","legacy","Jazzy James","3.1.9","0","s","NA","s","NA","NA","s","537","NA","31824","NA","NA","537","2","legacy","1024","2","48000","-16","experiment","SSSSS","2","even","33412","NA","NA","NA","NA","NA","37660","36610","1586","NA","NA","37658","37761","1581","37761","38299","Flanker Task","3","2323","3","yes","1024"
"100","100","714.75","714.75","black","no","legacy","legacy","legacy","0","congruent","uniform","1","undefined","1","h","0","0","0","3","3","0","3","3","0","0","0","3","3","0","3","3","09/04/18 09:30:40","1500","The main experiment item","yes","FlankerTask.osexp","C:/Users/Anabel/Desktop","no","mono","no","18","no","white","no","yes","768","legacy","3","3","C:/Users/Anabel/Desktop/AW-subject-2.csv","legacy","Jazzy James","3.1.9","0","h","NA","s","NA","NA","h","536","NA","31824","NA","NA","536","2","legacy","1024","2","48000","-16","experiment","HHHHH","2","even","33412","NA","NA","NA","NA","NA","39427","38377","1586","NA","NA","39425","39528","1581","39528","40065","Flanker Task","4","2859","4","yes","1024"
"100","100","706.4","706.4","black","no","legacy","legacy","legacy","0","incongruent","uniform","1","undefined","1","h","0","0","0","4","4","0","4","4","0","0","0","4","4","0","4","4","09/04/18 09:30:40","1500","The main experiment item","yes","FlankerTask.osexp","C:/Users/Anabel/Desktop","no","mono","no","18","no","white","no","yes","768","legacy","4","4","C:/Users/Anabel/Desktop/AW-subject-2.csv","legacy","Jazzy James","3.1.9","0","h","NA","s","NA","NA","h","673","NA","31824","NA","NA","673","2","legacy","1024","2","48000","-16","experiment","SSHSS","2","even","33412","NA","NA","NA","NA","NA","41138","40088","1586","NA","NA","41136","41240","1581","41240","41914","Flanker Task","5","3532","5","yes","1024"
"100","100","672.833333333","672.833333333","black","no","legacy","legacy","legacy","0","incongruent","uniform","1","undefined","1","h","0","0","0","5","5","0","5","5","0","0","0","5","5","0","5","5","09/04/18 09:30:40","1500","The main experiment item","yes","FlankerTask.osexp","C:/Users/Anabel/Desktop","no","mono","no","18","no","white","no","yes","768","legacy","5","5","C:/Users/Anabel/Desktop/AW-subject-2.csv","legacy","Jazzy James","3.1.9","0","h","NA","s","NA","NA","h","505","NA","31824","NA","NA","505","2","legacy","1024","2","48000","-16","experiment","SSHSS","2","even","33412","NA","NA","NA","NA","NA","43016","41966","1586","NA","NA","43014","43117","1581","43117","43624","Flanker Task","6","4037","6","yes","1024"
"100","100","630.285714286","630.285714286","black","no","legacy","legacy","legacy","0","congruent","uniform","1","undefined","1","s","0","0","0","6","6","0","6","6","0","0","0","6","6","0","6","6","09/04/18 09:30:40","1500","The main experiment item","yes","FlankerTask.osexp","C:/Users/Anabel/Desktop","no","mono","no","18","no","white","no","yes","768","legacy","6","6","C:/Users/Anabel/Desktop/AW-subject-2.csv","legacy","Jazzy James","3.1.9","0","s","NA","s","NA","NA","s","375","NA","31824","NA","NA","375","2","legacy","1024","2","48000","-16","experiment","SSSSS","2","even","33412","NA","NA","NA","NA","NA","44727","43677","1586","NA","NA","44725","44828","1581","44828","45204","Flanker Task","7","4412","7","yes","1024"
"100","100","607.625","607.625","black","no","legacy","legacy","legacy","0","incongruent","uniform","1","undefined","1","h","0","0","0","7","7","0","7","7","0","0","0","7","7","0","7","7","09/04/18 09:30:40","1500","The main experiment item","yes","FlankerTask.osexp","C:/Users/Anabel/Desktop","no","mono","no","18","no","white","no","yes","768","legacy","7","7","C:/Users/Anabel/Desktop/AW-subject-2.csv","legacy","Jazzy James","3.1.9","0","h","NA","s","NA","NA","h","449","NA","31824","NA","NA","449","2","legacy","1024","2","48000","-16","experiment","SSHSS","2","even","33412","NA","NA","NA","NA","NA","46282","45232","1586","NA","NA","46280","46384","1581","46384","46833","Flanker Task","8","4861","8","yes","1024"
"100","100","586.444444444","586.444444444","black","no","legacy","legacy","legacy","0","incongruent","uniform","1","undefined","1","h","0","0","0","8","8","0","8","8","0","0","0","8","8","0","8","8","09/04/18 09:30:40","1500","The main experiment item","yes","FlankerTask.osexp","C:/Users/Anabel/Desktop","no","mono","no","18","no","white","no","yes","768","legacy","8","8","C:/Users/Anabel/Desktop/AW-subject-2.csv","legacy","Jazzy James","3.1.9","0","h","NA","s","NA","NA","h","417","NA","31824","NA","NA","417","2","legacy","1024","2","48000","-16","experiment","SSHSS","2","even","33412","NA","NA","NA","NA","NA","47938","46888","1586","NA","NA","47936","48039","1581","48039","48457","Flanker Task","9","5278","9","yes","1024"
"100","100","569.4","569.4","black","no","legacy","legacy","legacy","0","incongruent","uniform","1","undefined","1","h","0","0","0","9","9","0","9","9","0","0","0","9","9","0","9","9","09/04/18 09:30:40","1500","The main experiment item","yes","FlankerTask.osexp","C:/Users/Anabel/Desktop","no","mono","no","18","no","white","no","yes","768","legacy","9","9","C:/Users/Anabel/Desktop/AW-subject-2.csv","legacy","Jazzy James","3.1.9","0","h","NA","s","NA","NA","h","416","NA","31824","NA","NA","416","2","legacy","1024","2","48000","-16","experiment","SSHSS","2","even","33412","NA","NA","NA","NA","NA","49552","48488","1586","NA","NA","49550","49654","1581","49654","50071","Flanker Task","10","5694","10","yes","1024"
"90.9090909091","90.9090909091","560.363636364","560.363636364","black","no","legacy","legacy","legacy","0","congruent","uniform","0","undefined","0","h","0","0","0","10","10","0","10","10","0","0","0","10","10","0","10","10","09/04/18 09:30:40","1500","The main experiment item","yes","FlankerTask.osexp","C:/Users/Anabel/Desktop","no","mono","no","18","no","white","no","yes","768","legacy","10","10","C:/Users/Anabel/Desktop/AW-subject-2.csv","legacy","Jazzy James","3.1.9","0","s","NA","s","NA","NA","s","470","NA","31824","NA","NA","470","2","legacy","1024","2","48000","-16","experiment","HHHHH","2","even","33412","NA","NA","NA","NA","NA","51167","50099","1586","NA","NA","51165","51269","1581","51269","51740","Flanker Task","10","6164","11","yes","1024"
"83.3333333333","83.3333333333","548.833333333","548.833333333","black","no","legacy","legacy","legacy","0","incongruent","uniform","0","undefined","0","h","0","0","0","11","11","0","11","11","0","0","0","11","11","0","11","11","09/04/18 09:30:40","1500","The main experiment item","yes","FlankerTask.osexp","C:/Users/Anabel/Desktop","no","mono","no","18","no","white","no","yes","768","legacy","11","11","C:/Users/Anabel/Desktop/AW-subject-2.csv","legacy","Jazzy James","3.1.9","0","s","NA","s","NA","NA","s","422","NA","31824","NA","NA","422","2","legacy","1024","2","48000","-16","experiment","SSHSS","2","even","33412","NA","NA","51779","NA","NA","53351","52281","1586","NA","NA","53349","53453","1581","53453","53877","Flanker Task","10","6586","12","yes","1024"
"84.6153846154","84.6153846154","540.769230769","540.769230769","black","no","legacy","legacy","legacy","0","congruent","uniform","1","undefined","1","h","0","0","0","12","12","0","12","12","0","0","0","12","12","0","12","12","09/04/18 09:30:40","1500","The main experiment item","yes","FlankerTask.osexp","C:/Users/Anabel/Desktop","no","mono","no","18","no","white","no","yes","768","legacy","12","12","C:/Users/Anabel/Desktop/AW-subject-2.csv","legacy","Jazzy James","3.1.9","0","h","NA","s","NA","NA","h","444","NA","31824","NA","NA","444","2","legacy","1024","2","48000","-16","experiment","HHHHH","2","even","33412","NA","NA","53911","NA","NA","55483","54413","1586","NA","NA","55481","55585","1581","55585","56030","Flanker Task","11","7030","13","yes","1024"
"78.5714285714","78.5714285714","530.857142857","530.857142857","black","no","legacy","legacy","legacy","0","incongruent","uniform","0","undefined","0","s","0","0","0","13","13","0","13","13","0","0","0","13","13","0","13","13","09/04/18 09:30:40","1500","The main experiment item","yes","FlankerTask.osexp","C:/Users/Anabel/Desktop","no","mono","no","18","no","white","no","yes","768","legacy","13","13","C:/Users/Anabel/Desktop/AW-subject-2.csv","legacy","Jazzy James","3.1.9","0","h","NA","s","NA","NA","h","402","NA","31824","NA","NA","402","2","legacy","1024","2","48000","-16","experiment","HHSHH","2","even","33412","NA","NA","53911","NA","NA","57129","56055","1586","NA","NA","57127","57231","1581","57231","57634","Flanker Task","11","7432","14","yes","1024"
"80","80","526.6","526.6","black","no","legacy","legacy","legacy","0","congruent","uniform","1","undefined","1","s","0","0","0","14","14","0","14","14","0","0","0","14","14","0","14","14","09/04/18 09:30:40","1500","The main experiment item","yes","FlankerTask.osexp","C:/Users/Anabel/Desktop","no","mono","no","18","no","white","no","yes","768","legacy","14","14","C:/Users/Anabel/Desktop/AW-subject-2.csv","legacy","Jazzy James","3.1.9","0","s","NA","s","NA","NA","s","467","NA","31824","NA","NA","467","2","legacy","1024","2","48000","-16","experiment","SSSSS","2","even","33412","NA","NA","57654","NA","NA","59228","58156","1586","NA","NA","59226","59330","1581","59330","59798","Flanker Task","12","7899","15","yes","1024"
"81.25","81.25","517.8125","517.8125","black","no","legacy","legacy","legacy","0","congruent","uniform","1","undefined","1","s","0","0","0","15","15","0","15","15","0","0","0","15","15","0","15","15","09/04/18 09:30:40","1500","The main experiment item","yes","FlankerTask.osexp","C:/Users/Anabel/Desktop","no","mono","no","18","no","white","no","yes","768","legacy","15","15","C:/Users/Anabel/Desktop/AW-subject-2.csv","legacy","Jazzy James","3.1.9","0","s","NA","s","NA","NA","s","386","NA","31824","NA","NA","386","2","legacy","1024","2","48000","-16","experiment","SSSSS","2","even","33412","NA","NA","57654","NA","NA","60891","59822","1586","NA","NA","60889","60993","1581","60993","61380","Flanker Task","13","8285","16","yes","1024"
"82.3529411765","82.3529411765","511.705882353","511.705882353","black","no","legacy","legacy","legacy","0","congruent","uniform","1","undefined","1","h","0","0","0","16","16","0","16","16","0","0","0","16","16","0","16","16","09/04/18 09:30:40","1500","The main experiment item","yes","FlankerTask.osexp","C:/Users/Anabel/Desktop","no","mono","no","18","no","white","no","yes","768","legacy","16","16","C:/Users/Anabel/Desktop/AW-subject-2.csv","legacy","Jazzy James","3.1.9","0","h","NA","s","NA","NA","h","414","NA","31824","NA","NA","414","2","legacy","1024","2","48000","-16","experiment","HHHHH","2","even","33412","NA","NA","57654","NA","NA","62478","61411","1586","NA","NA","62476","62580","1581","62580","62995","Flanker Task","14","8699","17","yes","1024"
"83.3333333333","83.3333333333","509.222222222","509.222222222","black","no","legacy","legacy","legacy","0","congruent","uniform","1","undefined","1","s","0","0","0","17","17","0","17","17","0","0","0","17","17","0","17","17","09/04/18 09:30:40","1500","The main experiment item","yes","FlankerTask.osexp","C:/Users/Anabel/Desktop","no","mono","no","18","no","white","no","yes","768","legacy","17","17","C:/Users/Anabel/Desktop/AW-subject-2.csv","legacy","Jazzy James","3.1.9","0","s","NA","s","NA","NA","s","467","NA","31824","NA","NA","467","2","legacy","1024","2","48000","-16","experiment","SSSSS","2","even","33412","NA","NA","57654","NA","NA","64131","63067","1586","NA","NA","64129","64233","1581","64233","64702","Flanker Task","15","9166","18","yes","1024"
"78.9473684211","78.9473684211","504.210526316","504.210526316","black","no","legacy","legacy","legacy","0","incongruent","uniform","0","undefined","0","s","0","0","0","18","18","0","18","18","0","0","0","18","18","0","18","18","09/04/18 09:30:40","1500","The main experiment item","yes","FlankerTask.osexp","C:/Users/Anabel/Desktop","no","mono","no","18","no","white","no","yes","768","legacy","18","18","C:/Users/Anabel/Desktop/AW-subject-2.csv","legacy","Jazzy James","3.1.9","0","h","NA","s","NA","NA","h","414","NA","31824","NA","NA","414","2","legacy","1024","2","48000","-16","experiment","HHSHH","2","even","33412","NA","NA","57654","NA","NA","65819","64766","1586","NA","NA","65817","65921","1581","65921","66336","Flanker Task","15","9580","19","yes","1024"
"80","80","500.85","500.85","black","no","legacy","legacy","legacy","0","congruent","uniform","1","undefined","1","s","0","0","0","19","19","0","19","19","0","0","0","19","19","0","19","19","09/04/18 09:30:40","1500","The main experiment item","yes","FlankerTask.osexp","C:/Users/Anabel/Desktop","no","mono","no","18","no","white","no","yes","768","legacy","19","19","C:/Users/Anabel/Desktop/AW-subject-2.csv","legacy","Jazzy James","3.1.9","0","s","NA","s","NA","NA","s","437","NA","31824","NA","NA","437","2","legacy","1024","2","48000","-16","experiment","SSSSS","2","even","33412","NA","NA","66366","NA","NA","67936","66868","1586","NA","NA","67934","68038","1581","68038","68476","Flanker Task","16","10017","20","yes","1024"
"76.1904761905","76.1904761905","497.714285714","497.714285714","black","no","legacy","legacy","legacy","0","incongruent","uniform","0","undefined","0","s","0","0","0","20","20","0","20","20","0","0","0","20","20","0","20","20","09/04/18 09:30:40","1500","The main experiment item","yes","FlankerTask.osexp","C:/Users/Anabel/Desktop","no","mono","no","18","no","white","no","yes","768","legacy","20","20","C:/Users/Anabel/Desktop/AW-subject-2.csv","legacy","Jazzy James","3.1.9","0","h","NA","s","NA","NA","h","435","NA","31824","NA","NA","435","2","legacy","1024","2","48000","-16","experiment","HHSHH","2","even","33412","NA","NA","66366","NA","NA","69563","68499","1586","NA","NA","69561","69665","1581","69665","70101","Flanker Task","16","10452","21","yes","1024"
"77.2727272727","77.2727272727","493.954545455","493.954545455","black","no","legacy","legacy","legacy","0","congruent","uniform","1","undefined","1","s","0","0","0","21","21","0","21","21","0","0","0","21","21","0","21","21","09/04/18 09:30:40","1500","The main experiment item","yes","FlankerTask.osexp","C:/Users/Anabel/Desktop","no","mono","no","18","no","white","no","yes","768","legacy","21","21","C:/Users/Anabel/Desktop/AW-subject-2.csv","legacy","Jazzy James","3.1.9","0","s","NA","s","NA","NA","s","415","NA","31824","NA","NA","415","2","legacy","1024","2","48000","-16","experiment","SSSSS","2","even","33412","NA","NA","70133","NA","NA","71714","70635","1586","NA","NA","71707","71817","1581","71817","72233","Flanker Task","17","10867","22","yes","1024"
"73.9130434783","73.9130434783","489.347826087","489.347826087","black","no","legacy","legacy","legacy","0","incongruent","uniform","0","undefined","0","h","0","0","0","22","22","0","22","22","0","0","0","22","22","0","22","22","09/04/18 09:30:40","1500","The main experiment item","yes","FlankerTask.osexp","C:/Users/Anabel/Desktop","no","mono","no","18","no","white","no","yes","768","legacy","22","22","C:/Users/Anabel/Desktop/AW-subject-2.csv","legacy","Jazzy James","3.1.9","0","s","NA","s","NA","NA","s","388","NA","31824","NA","NA","388","2","legacy","1024","2","48000","-16","experiment","SSHSS","2","even","33412","NA","NA","70133","NA","NA","73336","72266","1586","NA","NA","73334","73438","1581","73438","73827","Flanker Task","17","11255","23","yes","1024"
"75","75","495.583333333","495.583333333","black","no","legacy","legacy","legacy","0","incongruent","uniform","1","undefined","1","h","0","0","0","23","23","0","23","23","0","0","0","23","23","0","23","23","09/04/18 09:30:40","1500","The main experiment item","yes","FlankerTask.osexp","C:/Users/Anabel/Desktop","no","mono","no","18","no","white","no","yes","768","legacy","23","23","C:/Users/Anabel/Desktop/AW-subject-2.csv","legacy","Jazzy James","3.1.9","0","h","NA","s","NA","NA","h","639","NA","31824","NA","NA","639","2","legacy","1024","2","48000","-16","experiment","SSHSS","2","even","33412","NA","NA","73855","NA","NA","75429","74357","1586","NA","NA","75427","75532","1581","75532","76172","Flanker Task","18","11894","24","yes","1024"
"76","76","497.36","497.36","black","no","legacy","legacy","legacy","0","congruent","uniform","1","undefined","1","h","0","0","0","24","24","0","24","24","0","0","0","24","24","0","24","24","09/04/18 09:30:40","1500","The main experiment item","yes","FlankerTask.osexp","C:/Users/Anabel/Desktop","no","mono","no","18","no","white","no","yes","768","legacy","24","24","C:/Users/Anabel/Desktop/AW-subject-2.csv","legacy","Jazzy James","3.1.9","0","h","NA","s","NA","NA","h","540","NA","31824","NA","NA","540","2","legacy","1024","2","48000","-16","experiment","HHHHH","2","even","33412","NA","NA","73855","NA","NA","77267","76199","1586","NA","NA","77265","77369","1581","77369","77910","Flanker Task","19","12434","25","yes","1024"
"76.9230769231","76.9230769231","495.423076923","495.423076923","black","no","legacy","legacy","legacy","0","congruent","uniform","1","undefined","1","s","0","0","0","25","25","0","25","25","0","0","0","25","25","0","25","25","09/04/18 09:30:40","1500","The main experiment item","yes","FlankerTask.osexp","C:/Users/Anabel/Desktop","no","mono","no","18","no","white","no","yes","768","legacy","25","25","C:/Users/Anabel/Desktop/AW-subject-2.csv","legacy","Jazzy James","3.1.9","0","s","NA","s","NA","NA","s","447","NA","31824","NA","NA","447","2","legacy","1024","2","48000","-16","experiment","SSSSS","2","even","33412","NA","NA","73855","NA","NA","79010","77944","1586","NA","NA","79008","79112","1581","79112","79560","Flanker Task","20","12881","26","yes","1024"
"77.7777777778","77.7777777778","495.703703704","495.703703704","black","no","legacy","legacy","legacy","0","congruent","uniform","1","undefined","1","h","0","0","0","26","26","0","26","26","0","0","0","26","26","0","26","26","09/04/18 09:30:40","1500","The main experiment item","yes","FlankerTask.osexp","C:/Users/Anabel/Desktop","no","mono","no","18","no","white","no","yes","768","legacy","26","26","C:/Users/Anabel/Desktop/AW-subject-2.csv","legacy","Jazzy James","3.1.9","0","h","NA","s","NA","NA","h","503","NA","31824","NA","NA","503","2","legacy","1024","2","48000","-16","experiment","HHHHH","2","even","33412","NA","NA","73855","NA","NA","80657","79588","1586","NA","NA","80655","80759","1581","80759","81263","Flanker Task","21","13384","27","yes","1024"
"78.5714285714","78.5714285714","495.428571429","495.428571429","black","no","legacy","legacy","legacy","0","incongruent","uniform","1","undefined","1","h","0","0","0","27","27","0","27","27","0","0","0","27","27","0","27","27","09/04/18 09:30:40","1500","The main experiment item","yes","FlankerTask.osexp","C:/Users/Anabel/Desktop","no","mono","no","18","no","white","no","yes","768","legacy","27","27","C:/Users/Anabel/Desktop/AW-subject-2.csv","legacy","Jazzy James","3.1.9","0","h","NA","s","NA","NA","h","488","NA","31824","NA","NA","488","2","legacy","1024","2","48000","-16","experiment","SSHSS","2","even","33412","NA","NA","73855","NA","NA","82361","81289","1586","NA","NA","82359","82462","1581","82462","82951","Flanker Task","22","13872","28","yes","1024"
"79.3103448276","79.3103448276","497.448275862","497.448275862","black","no","legacy","legacy","legacy","0","incongruent","uniform","1","undefined","1","s","0","0","0","28","28","0","28","28","0","0","0","28","28","0","28","28","09/04/18 09:30:40","1500","The main experiment item","yes","FlankerTask.osexp","C:/Users/Anabel/Desktop","no","mono","no","18","no","white","no","yes","768","legacy","28","28","C:/Users/Anabel/Desktop/AW-subject-2.csv","legacy","Jazzy James","3.1.9","0","s","NA","s","NA","NA","s","554","NA","31824","NA","NA","554","2","legacy","1024","2","48000","-16","experiment","HHSHH","2","even","33412","NA","NA","73855","NA","NA","84077","83010","1586","NA","NA","84075","84179","1581","84179","84734","Flanker Task","23","14426","29","yes","1024"
"80","80","499.866666667","499.866666667","black","no","legacy","legacy","legacy","0","congruent","uniform","1","undefined","1","s","0","0","0","29","29","0","29","29","0","0","0","29","29","0","29","29","09/04/18 09:30:40","1500","The main experiment item","yes","FlankerTask.osexp","C:/Users/Anabel/Desktop","no","mono","no","18","no","white","no","yes","768","legacy","29","29","C:/Users/Anabel/Desktop/AW-subject-2.csv","legacy","Jazzy James","3.1.9","0","s","NA","s","NA","NA","s","570","NA","31824","NA","NA","570","2","legacy","1024","2","48000","-16","experiment","SSSSS","2","even","33412","NA","NA","73855","NA","NA","85853","84789","1586","NA","NA","85851","85955","1581","85955","86526","Flanker Task","24","14996","30","yes","1024"
"80.6451612903","80.6451612903","502.774193548","502.774193548","black","no","legacy","legacy","legacy","0","incongruent","uniform","1","undefined","1","h","0","0","0","30","30","0","30","30","0","0","0","30","30","0","30","30","09/04/18 09:30:40","1500","The main experiment item","yes","FlankerTask.osexp","C:/Users/Anabel/Desktop","no","mono","no","18","no","white","no","yes","768","legacy","30","30","C:/Users/Anabel/Desktop/AW-subject-2.csv","legacy","Jazzy James","3.1.9","0","h","NA","s","NA","NA","h","590","NA","31824","NA","NA","590","2","legacy","1024","2","48000","-16","experiment","SSHSS","2","even","33412","NA","NA","73855","NA","NA","87621","86555","1586","NA","NA","87619","87723","1581","87723","88315","Flanker Task","25","15586","31","yes","1024"
"81.25","81.25","513.90625","513.90625","black","no","legacy","legacy","legacy","0","congruent","uniform","1","undefined","1","h","0","0","0","31","31","0","31","31","0","0","0","31","31","0","31","31","09/04/18 09:30:40","1500","The main experiment item","yes","FlankerTask.osexp","C:/Users/Anabel/Desktop","no","mono","no","18","no","white","no","yes","768","legacy","31","31","C:/Users/Anabel/Desktop/AW-subject-2.csv","legacy","Jazzy James","3.1.9","0","h","NA","s","NA","NA","h","859","NA","31824","NA","NA","859","2","legacy","1024","2","48000","-16","experiment","HHHHH","2","even","33412","NA","NA","73855","NA","NA","89438","88366","1586","NA","NA","89436","89540","1581","89540","90400","Flanker Task","26","16445","32","yes","1024"
"81.8181818182","81.8181818182","512.333333333","512.333333333","black","no","legacy","legacy","legacy","0","congruent","uniform","1","undefined","1","s","0","0","0","32","32","0","32","32","0","0","0","32","32","0","32","32","09/04/18 09:30:40","1500","The main experiment item","yes","FlankerTask.osexp","C:/Users/Anabel/Desktop","no","mono","no","18","no","white","no","yes","768","legacy","32","32","C:/Users/Anabel/Desktop/AW-subject-2.csv","legacy","Jazzy James","3.1.9","0","s","NA","s","NA","NA","s","462","NA","31824","NA","NA","462","2","legacy","1024","2","48000","-16","experiment","SSSSS","2","even","33412","NA","NA","73855","NA","NA","91489","90422","1586","NA","NA","91487","91591","1581","91591","92054","Flanker Task","27","16907","33","yes","1024"
"82.3529411765","82.3529411765","512.617647059","512.617647059","black","no","legacy","legacy","legacy","0","incongruent","uniform","1","undefined","1","h","0","0","0","33","33","0","33","33","0","0","0","33","33","0","33","33","09/04/18 09:30:40","1500","The main experiment item","yes","FlankerTask.osexp","C:/Users/Anabel/Desktop","no","mono","no","18","no","white","no","yes","768","legacy","33","33","C:/Users/Anabel/Desktop/AW-subject-2.csv","legacy","Jazzy James","3.1.9","0","h","NA","s","NA","NA","h","522","NA","31824","NA","NA","522","2","legacy","1024","2","48000","-16","experiment","SSHSS","2","even","33412","NA","NA","73855","NA","NA","93161","92089","1586","NA","NA","93159","93263","1581","93263","93786","Flanker Task","28","17429","34","yes","1024"
"82.8571428571","82.8571428571","508.514285714","508.514285714","black","no","legacy","legacy","legacy","0","congruent","uniform","1","undefined","1","s","0","0","0","34","34","0","34","34","0","0","0","34","34","0","34","34","09/04/18 09:30:40","1500","The main experiment item","yes","FlankerTask.osexp","C:/Users/Anabel/Desktop","no","mono","no","18","no","white","no","yes","768","legacy","34","34","C:/Users/Anabel/Desktop/AW-subject-2.csv","legacy","Jazzy James","3.1.9","0","s","NA","s","NA","NA","s","369","NA","31824","NA","NA","369","2","legacy","1024","2","48000","-16","experiment","SSSSS","2","even","33412","NA","NA","73855","NA","NA","94889","93821","1586","NA","NA","94887","94992","1581","94992","95362","Flanker Task","29","17798","35","yes","1024"
"83.3333333333","83.3333333333","508.722222222","508.722222222","black","no","legacy","legacy","legacy","0","incongruent","uniform","1","undefined","1","h","0","0","0","35","35","0","35","35","0","0","0","35","35","0","35","35","09/04/18 09:30:40","1500","The main experiment item","yes","FlankerTask.osexp","C:/Users/Anabel/Desktop","no","mono","no","18","no","white","no","yes","768","legacy","35","35","C:/Users/Anabel/Desktop/AW-subject-2.csv","legacy","Jazzy James","3.1.9","0","h","NA","s","NA","NA","h","516","NA","31824","NA","NA","516","2","legacy","1024","2","48000","-16","experiment","SSHSS","2","even","33412","NA","NA","73855","NA","NA","96461","95389","1586","NA","NA","96459","96563","1581","96563","97080","Flanker Task","30","18314","36","yes","1024"
"83.7837837838","83.7837837838","506.054054054","506.054054054","black","no","legacy","legacy","legacy","0","congruent","uniform","1","undefined","1","s","0","0","0","36","36","0","36","36","0","0","0","36","36","0","36","36","09/04/18 09:30:40","1500","The main experiment item","yes","FlankerTask.osexp","C:/Users/Anabel/Desktop","no","mono","no","18","no","white","no","yes","768","legacy","36","36","C:/Users/Anabel/Desktop/AW-subject-2.csv","legacy","Jazzy James","3.1.9","0","s","NA","s","NA","NA","s","410","NA","31824","NA","NA","410","2","legacy","1024","2","48000","-16","experiment","SSSSS","2","even","33412","NA","NA","73855","NA","NA","98204","97134","1586","NA","NA","98202","98306","1581","98306","98717","Flanker Task","31","18724","37","yes","1024"
"84.2105263158","84.2105263158","507.5","507.5","black","no","legacy","legacy","legacy","0","incongruent","uniform","1","undefined","1","s","0","0","0","37","37","0","37","37","0","0","0","37","37","0","37","37","09/04/18 09:30:40","1500","The main experiment item","yes","FlankerTask.osexp","C:/Users/Anabel/Desktop","no","mono","no","18","no","white","no","yes","768","legacy","37","37","C:/Users/Anabel/Desktop/AW-subject-2.csv","legacy","Jazzy James","3.1.9","0","s","NA","s","NA","NA","s","561","NA","31824","NA","NA","561","2","legacy","1024","2","48000","-16","experiment","HHSHH","2","even","33412","NA","NA","73855","NA","NA","99850","98777","1586","NA","NA","99848","99952","1581","99952","100514","Flanker Task","32","19285","38","yes","1024"
"84.6153846154","84.6153846154","513.461538462","513.461538462","black","no","legacy","legacy","legacy","0","congruent","uniform","1","undefined","1","h","0","0","0","38","38","0","38","38","0","0","0","38","38","0","38","38","09/04/18 09:30:40","1500","The main experiment item","yes","FlankerTask.osexp","C:/Users/Anabel/Desktop","no","mono","no","18","no","white","no","yes","768","legacy","38","38","C:/Users/Anabel/Desktop/AW-subject-2.csv","legacy","Jazzy James","3.1.9","0","h","NA","s","NA","NA","h","740","NA","31824","NA","NA","740","2","legacy","1024","2","48000","-16","experiment","HHHHH","2","even","33412","NA","NA","73855","NA","NA","101630","100567","1586","NA","NA","101628","101732","1581","101732","102474","Flanker Task","33","20025","39","yes","1024"
"85","85","512.975","512.975","black","no","legacy","legacy","legacy","0","incongruent","uniform","1","undefined","1","s","0","0","0","39","39","0","39","39","0","0","0","39","39","0","39","39","09/04/18 09:30:40","1500","The main experiment item","yes","FlankerTask.osexp","C:/Users/Anabel/Desktop","no","mono","no","18","no","white","no","yes","768","legacy","39","39","C:/Users/Anabel/Desktop/AW-subject-2.csv","legacy","Jazzy James","3.1.9","0","s","NA","s","NA","NA","s","494","NA","31824","NA","NA","494","2","legacy","1024","2","48000","-16","experiment","HHSHH","2","even","33412","NA","NA","73855","NA","NA","103604","102533","1586","NA","NA","103601","103706","1581","103706","104201","Flanker Task","34","20519","40","yes","1024"
"85.3658536585","85.3658536585","511.463414634","511.463414634","black","no","legacy","legacy","legacy","0","congruent","uniform","1","undefined","1","s","0","0","0","40","40","0","40","40","0","0","0","40","40","0","40","40","09/04/18 09:30:40","1500","The main experiment item","yes","FlankerTask.osexp","C:/Users/Anabel/Desktop","no","mono","no","18","no","white","no","yes","768","legacy","40","40","C:/Users/Anabel/Desktop/AW-subject-2.csv","legacy","Jazzy James","3.1.9","0","s","NA","s","NA","NA","s","451","NA","31824","NA","NA","451","2","legacy","1024","2","48000","-16","experiment","SSSSS","2","even","33412","NA","NA","73855","NA","NA","105320","104256","1586","NA","NA","105318","105422","1581","105422","105874","Flanker Task","35","20970","41","yes","1024"
"85.7142857143","85.7142857143","510.547619048","510.547619048","black","no","legacy","legacy","legacy","0","congruent","uniform","1","undefined","1","h","0","0","0","41","41","0","41","41","0","0","0","41","41","0","41","41","09/04/18 09:30:40","1500","The main experiment item","yes","FlankerTask.osexp","C:/Users/Anabel/Desktop","no","mono","no","18","no","white","no","yes","768","legacy","41","41","C:/Users/Anabel/Desktop/AW-subject-2.csv","legacy","Jazzy James","3.1.9","0","h","NA","s","NA","NA","h","473","NA","31824","NA","NA","473","2","legacy","1024","2","48000","-16","experiment","HHHHH","2","even","33412","NA","NA","73855","NA","NA","106967","105899","1586","NA","NA","106965","107069","1581","107069","107543","Flanker Task","36","21443","42","yes","1024"
"86.0465116279","86.0465116279","513.441860465","513.441860465","black","no","legacy","legacy","legacy","0","incongruent","uniform","1","undefined","1","h","0","0","0","42","42","0","42","42","0","0","0","42","42","0","42","42","09/04/18 09:30:40","1500","The main experiment item","yes","FlankerTask.osexp","C:/Users/Anabel/Desktop","no","mono","no","18","no","white","no","yes","768","legacy","42","42","C:/Users/Anabel/Desktop/AW-subject-2.csv","legacy","Jazzy James","3.1.9","0","h","NA","s","NA","NA","h","635","NA","31824","NA","NA","635","2","legacy","1024","2","48000","-16","experiment","SSHSS","2","even","33412","NA","NA","73855","NA","NA","108639","107566","1586","NA","NA","108637","108741","1581","108741","109377","Flanker Task","37","22078","43","yes","1024"
"86.3636363636","86.3636363636","519.772727273","519.772727273","black","no","legacy","legacy","legacy","0","congruent","uniform","1","undefined","1","h","0","0","0","43","43","0","43","43","0","0","0","43","43","0","43","43","09/04/18 09:30:40","1500","The main experiment item","yes","FlankerTask.osexp","C:/Users/Anabel/Desktop","no","mono","no","18","no","white","no","yes","768","legacy","43","43","C:/Users/Anabel/Desktop/AW-subject-2.csv","legacy","Jazzy James","3.1.9","0","h","NA","s","NA","NA","h","792","NA","31824","NA","NA","792","2","legacy","1024","2","48000","-16","experiment","HHHHH","2","even","33412","NA","NA","73855","NA","NA","110604","109541","1586","NA","NA","110602","110706","1581","110706","111500","Flanker Task","38","22870","44","yes","1024"
"86.6666666667","86.6666666667","520.155555556","520.155555556","black","no","legacy","legacy","legacy","0","incongruent","uniform","1","undefined","1","s","0","0","0","44","44","0","44","44","0","0","0","44","44","0","44","44","09/04/18 09:30:40","1500","The main experiment item","yes","FlankerTask.osexp","C:/Users/Anabel/Desktop","no","mono","no","18","no","white","no","yes","768","legacy","44","44","C:/Users/Anabel/Desktop/AW-subject-2.csv","legacy","Jazzy James","3.1.9","0","s","NA","s","NA","NA","s","537","NA","31824","NA","NA","537","2","legacy","1024","2","48000","-16","experiment","HHSHH","2","even","33412","NA","NA","73855","NA","NA","112603","111533","1586","NA","NA","112601","112705","1581","112705","113243","Flanker Task","39","23407","45","yes","1024"
"86.9565217391","86.9565217391","519.108695652","519.108695652","black","no","legacy","legacy","legacy","0","congruent","uniform","1","undefined","1","s","0","0","0","45","45","0","45","45","0","0","0","45","45","0","45","45","09/04/18 09:30:40","1500","The main experiment item","yes","FlankerTask.osexp","C:/Users/Anabel/Desktop","no","mono","no","18","no","white","no","yes","768","legacy","45","45","C:/Users/Anabel/Desktop/AW-subject-2.csv","legacy","Jazzy James","3.1.9","0","s","NA","s","NA","NA","s","472","NA","31824","NA","NA","472","2","legacy","1024","2","48000","-16","experiment","SSSSS","2","even","33412","NA","NA","73855","NA","NA","114352","113289","1586","NA","NA","114350","114454","1581","114454","114929","Flanker Task","40","23879","46","yes","1024"
"85.1063829787","85.1063829787","517.872340426","517.872340426","black","no","legacy","legacy","legacy","0","incongruent","uniform","0","undefined","0","s","0","0","0","46","46","0","46","46","0","0","0","46","46","0","46","46","09/04/18 09:30:40","1500","The main experiment item","yes","FlankerTask.osexp","C:/Users/Anabel/Desktop","no","mono","no","18","no","white","no","yes","768","legacy","46","46","C:/Users/Anabel/Desktop/AW-subject-2.csv","legacy","Jazzy James","3.1.9","0","h","NA","s","NA","NA","h","461","NA","31824","NA","NA","461","2","legacy","1024","2","48000","-16","experiment","HHSHH","2","even","33412","NA","NA","73855","NA","NA","116057","114989","1586","NA","NA","116055","116159","1581","116159","116621","Flanker Task","40","24340","47","yes","1024"
"85.4166666667","85.4166666667","519.083333333","519.083333333","black","no","legacy","legacy","legacy","0","incongruent","uniform","1","undefined","1","s","0","0","0","47","47","0","47","47","0","0","0","47","47","0","47","47","09/04/18 09:30:40","1500","The main experiment item","yes","FlankerTask.osexp","C:/Users/Anabel/Desktop","no","mono","no","18","no","white","no","yes","768","legacy","47","47","C:/Users/Anabel/Desktop/AW-subject-2.csv","legacy","Jazzy James","3.1.9","0","s","NA","s","NA","NA","s","576","NA","31824","NA","NA","576","2","legacy","1024","2","48000","-16","experiment","HHSHH","2","even","33412","NA","NA","116667","NA","NA","118240","117169","1586","NA","NA","118238","118342","1581","118342","118919","Flanker Task","41","24916","48","yes","1024"
"85.7142857143","85.7142857143","518","518","black","no","legacy","legacy","legacy","0","incongruent","uniform","1","undefined","1","s","0","0","0","48","48","0","48","48","0","0","0","48","48","0","48","48","09/04/18 09:30:40","1500","The main experiment item","yes","FlankerTask.osexp","C:/Users/Anabel/Desktop","no","mono","no","18","no","white","no","yes","768","legacy","48","48","C:/Users/Anabel/Desktop/AW-subject-2.csv","legacy","Jazzy James","3.1.9","0","s","NA","s","NA","NA","s","466","NA","31824","NA","NA","466","2","legacy","1024","2","48000","-16","experiment","HHSHH","2","even","33412","NA","NA","116667","NA","NA","120047","118978","1586","NA","NA","120045","120149","1581","120149","120617","Flanker Task","42","25382","49","yes","1024"
"86","86","520.98","520.98","black","no","legacy","legacy","legacy","0","congruent","uniform","1","undefined","1","h","0","0","0","49","49","0","49","49","0","0","0","49","49","0","49","49","09/04/18 09:30:40","1500","The main experiment item","yes","FlankerTask.osexp","C:/Users/Anabel/Desktop","no","mono","no","18","no","white","no","yes","768","legacy","49","49","C:/Users/Anabel/Desktop/AW-subject-2.csv","legacy","Jazzy James","3.1.9","0","h","NA","s","NA","NA","h","667","NA","31824","NA","NA","667","2","legacy","1024","2","48000","-16","experiment","HHHHH","2","even","33412","NA","NA","116667","NA","NA","121731","120667","1586","NA","NA","121729","121833","1581","121833","122502","Flanker Task","43","26049","50","yes","1024"
"86.2745098039","86.2745098039","520.803921569","520.803921569","black","no","legacy","legacy","legacy","0","congruent","uniform","1","undefined","1","h","0","0","0","50","50","0","50","50","0","0","0","50","50","0","50","50","09/04/18 09:30:40","1500","The main experiment item","yes","FlankerTask.osexp","C:/Users/Anabel/Desktop","no","mono","no","18","no","white","no","yes","768","legacy","50","50","C:/Users/Anabel/Desktop/AW-subject-2.csv","legacy","Jazzy James","3.1.9","0","h","NA","s","NA","NA","h","512","NA","31824","NA","NA","512","2","legacy","1024","2","48000","-16","experiment","HHHHH","2","even","33412","NA","NA","116667","NA","NA","123620","122556","1586","NA","NA","123618","123723","1581","123723","124237","Flanker Task","44","26561","51","yes","1024"
"86.5384615385","86.5384615385","518.903846154","518.903846154","black","no","legacy","legacy","legacy","0","congruent","uniform","1","undefined","1","h","0","0","0","51","51","0","51","51","0","0","0","51","51","0","51","51","09/04/18 09:30:40","1500","The main experiment item","yes","FlankerTask.osexp","C:/Users/Anabel/Desktop","no","mono","no","18","no","white","no","yes","768","legacy","51","51","C:/Users/Anabel/Desktop/AW-subject-2.csv","legacy","Jazzy James","3.1.9","0","h","NA","s","NA","NA","h","422","NA","31824","NA","NA","422","2","legacy","1024","2","48000","-16","experiment","HHHHH","2","even","33412","NA","NA","116667","NA","NA","125361","124297","1586","NA","NA","125359","125463","1581","125463","125886","Flanker Task","45","26983","52","yes","1024"
"86.7924528302","86.7924528302","519.905660377","519.905660377","black","no","legacy","legacy","legacy","0","incongruent","uniform","1","undefined","1","s","0","0","0","52","52","0","52","52","0","0","0","52","52","0","52","52","09/04/18 09:30:40","1500","The main experiment item","yes","FlankerTask.osexp","C:/Users/Anabel/Desktop","no","mono","no","18","no","white","no","yes","768","legacy","52","52","C:/Users/Anabel/Desktop/AW-subject-2.csv","legacy","Jazzy James","3.1.9","0","s","NA","s","NA","NA","s","572","NA","31824","NA","NA","572","2","legacy","1024","2","48000","-16","experiment","HHSHH","2","even","33412","NA","NA","116667","NA","NA","126984","125921","1586","NA","NA","126982","127086","1581","127086","127660","Flanker Task","46","27555","53","yes","1024"
"87.037037037","87.037037037","520.185185185","520.185185185","black","no","legacy","legacy","legacy","0","incongruent","uniform","1","undefined","1","s","0","0","0","53","53","0","53","53","0","0","0","53","53","0","53","53","09/04/18 09:30:40","1500","The main experiment item","yes","FlankerTask.osexp","C:/Users/Anabel/Desktop","no","mono","no","18","no","white","no","yes","768","legacy","53","53","C:/Users/Anabel/Desktop/AW-subject-2.csv","legacy","Jazzy James","3.1.9","0","s","NA","s","NA","NA","s","535","NA","31824","NA","NA","535","2","legacy","1024","2","48000","-16","experiment","HHSHH","2","even","33412","NA","NA","116667","NA","NA","128752","127688","1586","NA","NA","128750","128854","1581","128854","129391","Flanker Task","47","28090","54","yes","1024"
"87.2727272727","87.2727272727","522.927272727","522.927272727","black","no","legacy","legacy","legacy","0","congruent","uniform","1","undefined","1","h","0","0","0","54","54","0","54","54","0","0","0","54","54","0","54","54","09/04/18 09:30:40","1500","The main experiment item","yes","FlankerTask.osexp","C:/Users/Anabel/Desktop","no","mono","no","18","no","white","no","yes","768","legacy","54","54","C:/Users/Anabel/Desktop/AW-subject-2.csv","legacy","Jazzy James","3.1.9","0","h","NA","s","NA","NA","h","671","NA","31824","NA","NA","671","2","legacy","1024","2","48000","-16","experiment","HHHHH","2","even","33412","NA","NA","116667","NA","NA","130514","129445","1586","NA","NA","130512","130616","1581","130616","131288","Flanker Task","48","28761","55","yes","1024"
"87.5","87.5","523.553571429","523.553571429","black","no","legacy","legacy","legacy","0","incongruent","uniform","1","undefined","1","s","0","0","0","55","55","0","55","55","0","0","0","55","55","0","55","55","09/04/18 09:30:40","1500","The main experiment item","yes","FlankerTask.osexp","C:/Users/Anabel/Desktop","no","mono","no","18","no","white","no","yes","768","legacy","55","55","C:/Users/Anabel/Desktop/AW-subject-2.csv","legacy","Jazzy James","3.1.9","0","s","NA","s","NA","NA","s","558","NA","31824","NA","NA","558","2","legacy","1024","2","48000","-16","experiment","HHSHH","2","even","33412","NA","NA","116667","NA","NA","132385","131321","1586","NA","NA","132383","132487","1581","132487","133047","Flanker Task","49","29319","56","yes","1024"
"87.7192982456","87.7192982456","522.50877193","522.50877193","black","no","legacy","legacy","legacy","0","congruent","uniform","1","undefined","1","s","0","0","0","56","56","0","56","56","0","0","0","56","56","0","56","56","09/04/18 09:30:40","1500","The main experiment item","yes","FlankerTask.osexp","C:/Users/Anabel/Desktop","no","mono","no","18","no","white","no","yes","768","legacy","56","56","C:/Users/Anabel/Desktop/AW-subject-2.csv","legacy","Jazzy James","3.1.9","0","s","NA","s","NA","NA","s","464","NA","31824","NA","NA","464","2","legacy","1024","2","48000","-16","experiment","SSSSS","2","even","33412","NA","NA","116667","NA","NA","134147","133078","1586","NA","NA","134145","134249","1581","134249","134715","Flanker Task","50","29783","57","yes","1024"
"87.9310344828","87.9310344828","521.137931034","521.137931034","black","no","legacy","legacy","legacy","0","congruent","uniform","1","undefined","1","s","0","0","0","57","57","0","57","57","0","0","0","57","57","0","57","57","09/04/18 09:30:40","1500","The main experiment item","yes","FlankerTask.osexp","C:/Users/Anabel/Desktop","no","mono","no","18","no","white","no","yes","768","legacy","57","57","C:/Users/Anabel/Desktop/AW-subject-2.csv","legacy","Jazzy James","3.1.9","0","s","NA","s","NA","NA","s","443","NA","31824","NA","NA","443","2","legacy","1024","2","48000","-16","experiment","SSSSS","2","even","33412","NA","NA","116667","NA","NA","135828","134767","1586","NA","NA","135825","135929","1581","135929","136374","Flanker Task","51","30226","58","yes","1024"
"88.1355932203","88.1355932203","522.627118644","522.627118644","black","no","legacy","legacy","legacy","0","incongruent","uniform","1","undefined","1","h","0","0","0","58","58","0","58","58","0","0","0","58","58","0","58","58","09/04/18 09:30:40","1500","The main experiment item","yes","FlankerTask.osexp","C:/Users/Anabel/Desktop","no","mono","no","18","no","white","no","yes","768","legacy","58","58","C:/Users/Anabel/Desktop/AW-subject-2.csv","legacy","Jazzy James","3.1.9","0","h","NA","s","NA","NA","h","609","NA","31824","NA","NA","609","2","legacy","1024","2","48000","-16","experiment","SSHSS","2","even","33412","NA","NA","116667","NA","NA","137468","136411","1586","NA","NA","137465","137569","1581","137569","138179","Flanker Task","52","30835","59","yes","1024"
"88.3333333333","88.3333333333","527.416666667","527.416666667","black","no","legacy","legacy","legacy","0","incongruent","uniform","1","undefined","1","s","0","0","0","59","59","0","59","59","0","0","0","59","59","0","59","59","09/04/18 09:30:40","1500","The main experiment item","yes","FlankerTask.osexp","C:/Users/Anabel/Desktop","no","mono","no","18","no","white","no","yes","768","legacy","59","59","C:/Users/Anabel/Desktop/AW-subject-2.csv","legacy","Jazzy James","3.1.9","0","s","NA","s","NA","NA","s","810","NA","31824","NA","NA","810","2","legacy","1024","2","48000","-16","experiment","HHSHH","2","even","33412","NA","NA","116667","NA","NA","139297","138243","1586","NA","NA","139295","139399","1581","139399","140210","Flanker Task","53","31645","60","yes","1024"
"88.5245901639","88.5245901639","528.639344262","528.639344262","black","no","legacy","legacy","legacy","0","incongruent","uniform","1","undefined","1","h","0","0","0","60","60","0","60","60","0","0","0","60","60","0","60","60","09/04/18 09:30:40","1500","The main experiment item","yes","FlankerTask.osexp","C:/Users/Anabel/Desktop","no","mono","no","18","no","white","no","yes","768","legacy","60","60","C:/Users/Anabel/Desktop/AW-subject-2.csv","legacy","Jazzy James","3.1.9","0","h","NA","s","NA","NA","h","602","NA","31824","NA","NA","602","2","legacy","1024","2","48000","-16","experiment","SSHSS","2","even","33412","NA","NA","116667","NA","NA","141316","140244","1586","NA","NA","141314","141419","1581","141419","142023","Flanker Task","54","32247","61","yes","1024"
"87.0967741935","87.0967741935","532.661290323","532.661290323","black","no","legacy","legacy","legacy","0","congruent","uniform","0","undefined","0","h","0","0","0","61","61","0","61","61","0","0","0","61","61","0","61","61","09/04/18 09:30:40","1500","The main experiment item","yes","FlankerTask.osexp","C:/Users/Anabel/Desktop","no","mono","no","18","no","white","no","yes","768","legacy","61","61","C:/Users/Anabel/Desktop/AW-subject-2.csv","legacy","Jazzy James","3.1.9","0","s","NA","s","NA","NA","s","778","NA","31824","NA","NA","778","2","legacy","1024","2","48000","-16","experiment","HHHHH","2","even","33412","NA","NA","116667","NA","NA","143209","142140","1586","NA","NA","143207","143310","1581","143310","144090","Flanker Task","54","33025","62","yes","1024"
"87.3015873016","87.3015873016","532.53968254","532.53968254","black","no","legacy","legacy","legacy","0","congruent","uniform","1","undefined","1","s","0","0","0","62","62","0","62","62","0","0","0","62","62","0","62","62","09/04/18 09:30:40","1500","The main experiment item","yes","FlankerTask.osexp","C:/Users/Anabel/Desktop","no","mono","no","18","no","white","no","yes","768","legacy","62","62","C:/Users/Anabel/Desktop/AW-subject-2.csv","legacy","Jazzy James","3.1.9","0","s","NA","s","NA","NA","s","525","NA","31824","NA","NA","525","2","legacy","1024","2","48000","-16","experiment","SSSSS","2","even","33412","NA","NA","144122","NA","NA","145695","144625","1586","NA","NA","145692","145797","1581","145797","146324","Flanker Task","55","33550","63","yes","1024"
"87.5","87.5","534.1875","534.1875","black","no","legacy","legacy","legacy","0","incongruent","uniform","1","undefined","1","s","0","0","0","63","63","0","63","63","0","0","0","63","63","0","63","63","09/04/18 09:30:40","1500","The main experiment item","yes","FlankerTask.osexp","C:/Users/Anabel/Desktop","no","mono","no","18","no","white","no","yes","768","legacy","63","63","C:/Users/Anabel/Desktop/AW-subject-2.csv","legacy","Jazzy James","3.1.9","0","s","NA","s","NA","NA","s","638","NA","31824","NA","NA","638","2","legacy","1024","2","48000","-16","experiment","HHSHH","2","even","33412","NA","NA","144122","NA","NA","147533","146469","1586","NA","NA","147531","147635","1581","147635","148274","Flanker Task","56","34188","64","yes","1024"
"87.6923076923","87.6923076923","535.123076923","535.123076923","black","no","legacy","legacy","legacy","0","congruent","uniform","1","undefined","1","h","0","0","0","64","64","0","64","64","0","0","0","64","64","0","64","64","09/04/18 09:30:40","1500","The main experiment item","yes","FlankerTask.osexp","C:/Users/Anabel/Desktop","no","mono","no","18","no","white","no","yes","768","legacy","64","64","C:/Users/Anabel/Desktop/AW-subject-2.csv","legacy","Jazzy James","3.1.9","0","h","NA","s","NA","NA","h","595","NA","31824","NA","NA","595","2","legacy","1024","2","48000","-16","experiment","HHHHH","2","even","33412","NA","NA","144122","NA","NA","149384","148311","1586","NA","NA","149381","149486","1581","149486","150083","Flanker Task","57","34783","65","yes","1024"
"87.8787878788","87.8787878788","536.666666667","536.666666667","black","no","legacy","legacy","legacy","0","incongruent","uniform","1","undefined","1","s","0","0","0","65","65","0","65","65","0","0","0","65","65","0","65","65","09/04/18 09:30:40","1500","The main experiment item","yes","FlankerTask.osexp","C:/Users/Anabel/Desktop","no","mono","no","18","no","white","no","yes","768","legacy","65","65","C:/Users/Anabel/Desktop/AW-subject-2.csv","legacy","Jazzy James","3.1.9","0","s","NA","s","NA","NA","s","637","NA","31824","NA","NA","637","2","legacy","1024","2","48000","-16","experiment","HHSHH","2","even","33412","NA","NA","144122","NA","NA","151188","150122","1586","NA","NA","151186","151290","1581","151290","151929","Flanker Task","58","35420","66","yes","1024"
"88.0597014925","88.0597014925","536.776119403","536.776119403","black","no","legacy","legacy","legacy","0","incongruent","uniform","1","undefined","1","s","0","0","0","66","66","0","66","66","0","0","0","66","66","0","66","66","09/04/18 09:30:40","1500","The main experiment item","yes","FlankerTask.osexp","C:/Users/Anabel/Desktop","no","mono","no","18","no","white","no","yes","768","legacy","66","66","C:/Users/Anabel/Desktop/AW-subject-2.csv","legacy","Jazzy James","3.1.9","0","s","NA","s","NA","NA","s","544","NA","31824","NA","NA","544","2","legacy","1024","2","48000","-16","experiment","HHSHH","2","even","33412","NA","NA","144122","NA","NA","153045","151967","1586","NA","NA","153039","153147","1581","153147","153692","Flanker Task","59","35964","67","yes","1024"
"88.2352941176","88.2352941176","536.647058824","536.647058824","black","no","legacy","legacy","legacy","0","congruent","uniform","1","undefined","1","s","0","0","0","67","67","0","67","67","0","0","0","67","67","0","67","67","09/04/18 09:30:40","1500","The main experiment item","yes","FlankerTask.osexp","C:/Users/Anabel/Desktop","no","mono","no","18","no","white","no","yes","768","legacy","67","67","C:/Users/Anabel/Desktop/AW-subject-2.csv","legacy","Jazzy James","3.1.9","0","s","NA","s","NA","NA","s","528","NA","31824","NA","NA","528","2","legacy","1024","2","48000","-16","experiment","SSSSS","2","even","33412","NA","NA","144122","NA","NA","154789","153722","1586","NA","NA","154787","154890","1581","154891","155421","Flanker Task","60","36492","68","yes","1024"
"88.4057971014","88.4057971014","536.623188406","536.623188406","black","no","legacy","legacy","legacy","0","congruent","uniform","1","undefined","1","h","0","0","0","68","68","0","68","68","0","0","0","68","68","0","68","68","09/04/18 09:30:40","1500","The main experiment item","yes","FlankerTask.osexp","C:/Users/Anabel/Desktop","no","mono","no","18","no","white","no","yes","768","legacy","68","68","C:/Users/Anabel/Desktop/AW-subject-2.csv","legacy","Jazzy James","3.1.9","0","h","NA","s","NA","NA","h","535","NA","31824","NA","NA","535","2","legacy","1024","2","48000","-16","experiment","HHHHH","2","even","33412","NA","NA","144122","NA","NA","156554","155478","1586","NA","NA","156551","156656","1581","156656","157193","Flanker Task","61","37027","69","yes","1024"
"88.5714285714","88.5714285714","536.214285714","536.214285714","black","no","legacy","legacy","legacy","0","congruent","uniform","1","undefined","1","h","0","0","0","69","69","0","69","69","0","0","0","69","69","0","69","69","09/04/18 09:30:40","1500","The main experiment item","yes","FlankerTask.osexp","C:/Users/Anabel/Desktop","no","mono","no","18","no","white","no","yes","768","legacy","69","69","C:/Users/Anabel/Desktop/AW-subject-2.csv","legacy","Jazzy James","3.1.9","0","h","NA","s","NA","NA","h","508","NA","31824","NA","NA","508","2","legacy","1024","2","48000","-16","experiment","HHHHH","2","even","33412","NA","NA","144122","NA","NA","158292","157221","1586","NA","NA","158290","158393","1581","158393","158903","Flanker Task","62","37535","70","yes","1024"
"88.7323943662","88.7323943662","535.732394366","535.732394366","black","no","legacy","legacy","legacy","0","congruent","uniform","1","undefined","1","h","0","0","0","70","70","0","70","70","0","0","0","70","70","0","70","70","09/04/18 09:30:40","1500","The main experiment item","yes","FlankerTask.osexp","C:/Users/Anabel/Desktop","no","mono","no","18","no","white","no","yes","768","legacy","70","70","C:/Users/Anabel/Desktop/AW-subject-2.csv","legacy","Jazzy James","3.1.9","0","h","NA","s","NA","NA","h","502","NA","31824","NA","NA","502","2","legacy","1024","2","48000","-16","experiment","HHHHH","2","even","33412","NA","NA","144122","NA","NA","160003","158934","1586","NA","NA","160001","160106","1581","160106","160609","Flanker Task","63","38037","71","yes","1024"
"88.8888888889","88.8888888889","535.319444444","535.319444444","black","no","legacy","legacy","legacy","0","incongruent","uniform","1","undefined","1","s","0","0","0","71","71","0","71","71","0","0","0","71","71","0","71","71","09/04/18 09:30:40","1500","The main experiment item","yes","FlankerTask.osexp","C:/Users/Anabel/Desktop","no","mono","no","18","no","white","no","yes","768","legacy","71","71","C:/Users/Anabel/Desktop/AW-subject-2.csv","legacy","Jazzy James","3.1.9","0","s","NA","s","NA","NA","s","506","NA","31824","NA","NA","506","2","legacy","1024","2","48000","-16","experiment","HHSHH","2","even","33412","NA","NA","144122","NA","NA","161739","160666","1586","NA","NA","161737","161841","1581","161841","162348","Flanker Task","64","38543","72","yes","1024"
"89.0410958904","89.0410958904","534.589041096","534.589041096","black","no","legacy","legacy","legacy","0","congruent","uniform","1","undefined","1","s","0","0","0","72","72","0","72","72","0","0","0","72","72","0","72","72","09/04/18 09:30:40","1500","The main experiment item","yes","FlankerTask.osexp","C:/Users/Anabel/Desktop","no","mono","no","18","no","white","no","yes","768","legacy","72","72","C:/Users/Anabel/Desktop/AW-subject-2.csv","legacy","Jazzy James","3.1.9","0","s","NA","s","NA","NA","s","482","NA","31824","NA","NA","482","2","legacy","1024","2","48000","-16","experiment","SSSSS","2","even","33412","NA","NA","144122","NA","NA","163450","162378","1586","NA","NA","163448","163552","1581","163552","164036","Flanker Task","65","39025","73","yes","1024"
"89.1891891892","89.1891891892","535.797297297","535.797297297","black","no","legacy","legacy","legacy","0","incongruent","uniform","1","undefined","1","h","0","0","0","73","73","0","73","73","0","0","0","73","73","0","73","73","09/04/18 09:30:40","1500","The main experiment item","yes","FlankerTask.osexp","C:/Users/Anabel/Desktop","no","mono","no","18","no","white","no","yes","768","legacy","73","73","C:/Users/Anabel/Desktop/AW-subject-2.csv","legacy","Jazzy James","3.1.9","0","h","NA","s","NA","NA","h","624","NA","31824","NA","NA","624","2","legacy","1024","2","48000","-16","experiment","SSHSS","2","even","33412","NA","NA","144122","NA","NA","165160","164089","1586","NA","NA","165158","165262","1581","165262","165888","Flanker Task","66","39649","74","yes","1024"
"89.3333333333","89.3333333333","537.36","537.36","black","no","legacy","legacy","legacy","0","incongruent","uniform","1","undefined","1","h","0","0","0","74","74","0","74","74","0","0","0","74","74","0","74","74","09/04/18 09:30:40","1500","The main experiment item","yes","FlankerTask.osexp","C:/Users/Anabel/Desktop","no","mono","no","18","no","white","no","yes","768","legacy","74","74","C:/Users/Anabel/Desktop/AW-subject-2.csv","legacy","Jazzy James","3.1.9","0","h","NA","s","NA","NA","h","653","NA","31824","NA","NA","653","2","legacy","1024","2","48000","-16","experiment","SSHSS","2","even","33412","NA","NA","144122","NA","NA","167018","165945","1586","NA","NA","167016","167120","1581","167120","167775","Flanker Task","67","40302","75","yes","1024"
"89.4736842105","89.4736842105","536.210526316","536.210526316","black","no","legacy","legacy","legacy","0","congruent","uniform","1","undefined","1","h","0","0","0","75","75","0","75","75","0","0","0","75","75","0","75","75","09/04/18 09:30:40","1500","The main experiment item","yes","FlankerTask.osexp","C:/Users/Anabel/Desktop","no","mono","no","18","no","white","no","yes","768","legacy","75","75","C:/Users/Anabel/Desktop/AW-subject-2.csv","legacy","Jazzy James","3.1.9","0","h","NA","s","NA","NA","h","450","NA","31824","NA","NA","450","2","legacy","1024","2","48000","-16","experiment","HHHHH","2","even","33412","NA","NA","144122","NA","NA","168882","167811","1586","NA","NA","168880","168984","1581","168984","169436","Flanker Task","68","40752","76","yes","1024"
"88.3116883117","88.3116883117","533.571428571","533.571428571","black","no","legacy","legacy","legacy","0","incongruent","uniform","0","undefined","0","h","0","0","0","76","76","0","76","76","0","0","0","76","76","0","76","76","09/04/18 09:30:40","1500","The main experiment item","yes","FlankerTask.osexp","C:/Users/Anabel/Desktop","no","mono","no","18","no","white","no","yes","768","legacy","76","76","C:/Users/Anabel/Desktop/AW-subject-2.csv","legacy","Jazzy James","3.1.9","0","s","NA","s","NA","NA","s","333","NA","31824","NA","NA","333","2","legacy","1024","2","48000","-16","experiment","SSHSS","2","even","33412","NA","NA","144122","NA","NA","170562","169490","1586","NA","NA","170560","170664","1581","170664","171000","Flanker Task","68","41085","77","yes","1024"
"88.4615384615","88.4615384615","534.679487179","534.679487179","black","no","legacy","legacy","legacy","0","incongruent","uniform","1","undefined","1","h","0","0","0","77","77","0","77","77","0","0","0","77","77","0","77","77","09/04/18 09:30:40","1500","The main experiment item","yes","FlankerTask.osexp","C:/Users/Anabel/Desktop","no","mono","no","18","no","white","no","yes","768","legacy","77","77","C:/Users/Anabel/Desktop/AW-subject-2.csv","legacy","Jazzy James","3.1.9","0","h","NA","s","NA","NA","h","620","NA","31824","NA","NA","620","2","legacy","1024","2","48000","-16","experiment","SSHSS","2","even","33412","NA","NA","171056","NA","NA","172630","171558","1586","NA","NA","172628","172732","1581","172732","173353","Flanker Task","69","41705","78","yes","1024"
"88.6075949367","88.6075949367","536.746835443","536.746835443","black","no","legacy","legacy","legacy","0","incongruent","uniform","1","undefined","1","h","0","0","0","78","78","0","78","78","0","0","0","78","78","0","78","78","09/04/18 09:30:40","1500","The main experiment item","yes","FlankerTask.osexp","C:/Users/Anabel/Desktop","no","mono","no","18","no","white","no","yes","768","legacy","78","78","C:/Users/Anabel/Desktop/AW-subject-2.csv","legacy","Jazzy James","3.1.9","0","h","NA","s","NA","NA","h","698","NA","31824","NA","NA","698","2","legacy","1024","2","48000","-16","experiment","SSHSS","2","even","33412","NA","NA","171056","NA","NA","174562","173499","1586","NA","NA","174560","174664","1581","174664","175364","Flanker Task","70","42403","79","yes","1024"
"87.5","87.5","536.6125","536.6125","black","no","legacy","legacy","legacy","0","incongruent","uniform","0","undefined","0","s","0","0","0","79","79","0","79","79","0","0","0","79","79","0","79","79","09/04/18 09:30:40","1500","The main experiment item","yes","FlankerTask.osexp","C:/Users/Anabel/Desktop","no","mono","no","18","no","white","no","yes","768","legacy","79","79","C:/Users/Anabel/Desktop/AW-subject-2.csv","legacy","Jazzy James","3.1.9","0","h","NA","s","NA","NA","h","526","NA","31824","NA","NA","526","2","legacy","1024","2","48000","-16","experiment","HHSHH","2","even","33412","NA","NA","171056","NA","NA","176473","175401","1586","NA","NA","176471","176575","1581","176575","177103","Flanker Task","70","42929","80","yes","1024"
"87.6543209877","87.6543209877","535.87654321","535.87654321","black","no","legacy","legacy","legacy","0","congruent","uniform","1","undefined","1","s","0","0","0","80","80","0","80","80","0","0","0","80","80","0","80","80","09/04/18 09:30:40","600","The main experiment item","yes","FlankerTask.osexp","C:/Users/Anabel/Desktop","no","mono","no","18","no","white","no","yes","768","legacy","0","79","C:/Users/Anabel/Desktop/AW-subject-2.csv","legacy","Jazzy James","3.1.9","0","s","NA","s","s","NA","s","477","NA","31824","13685","NA","477","2","legacy","1024","2","48000","-16","experiment","SSSSS","2","even","33412","192340","NA","177133","NA","NA","192391","177635","1586","178653","NA","192390","192494","1581","192494","192974","Flanker Task","71","43406","81","yes","1024"
"87.8048780488","87.8048780488","536.780487805","536.780487805","black","no","legacy","legacy","legacy","0","incongruent","uniform","1","undefined","1","s","0","0","0","81","81","0","81","81","0","0","0","81","81","0","81","81","09/04/18 09:30:40","600","The main experiment item","yes","FlankerTask.osexp","C:/Users/Anabel/Desktop","no","mono","no","18","no","white","no","yes","768","legacy","1","79","C:/Users/Anabel/Desktop/AW-subject-2.csv","legacy","Jazzy James","3.1.9","0","s","NA","s","s","NA","s","610","NA","31824","13685","NA","610","2","legacy","1024","2","48000","-16","experiment","HHSHH","2","even","33412","192340","NA","177133","NA","NA","194109","193034","1586","178653","NA","194107","194211","1581","194211","194824","Flanker Task","72","44016","82","yes","1024"
"87.9518072289","87.9518072289","537.457831325","537.457831325","black","no","legacy","legacy","legacy","0","incongruent","uniform","1","undefined","1","s","0","0","0","82","82","0","82","82","0","0","0","82","82","0","82","82","09/04/18 09:30:40","600","The main experiment item","yes","FlankerTask.osexp","C:/Users/Anabel/Desktop","no","mono","no","18","no","white","no","yes","768","legacy","2","79","C:/Users/Anabel/Desktop/AW-subject-2.csv","legacy","Jazzy James","3.1.9","0","s","NA","s","s","NA","s","593","NA","31824","13685","NA","593","2","legacy","1024","2","48000","-16","experiment","HHSHH","2","even","33412","192340","NA","177133","194878","NA","196451","195380","1586","178653","NA","196449","196553","1581","196553","197149","Flanker Task","73","44609","83","yes","1024"
"88.0952380952","88.0952380952","535.94047619","535.94047619","black","no","legacy","legacy","legacy","0","congruent","uniform","1","undefined","1","s","0","0","0","83","83","0","83","83","0","0","0","83","83","0","83","83","09/04/18 09:30:40","600","The main experiment item","yes","FlankerTask.osexp","C:/Users/Anabel/Desktop","no","mono","no","18","no","white","no","yes","768","legacy","3","79","C:/Users/Anabel/Desktop/AW-subject-2.csv","legacy","Jazzy James","3.1.9","0","s","NA","s","s","NA","s","410","NA","31824","13685","NA","410","2","legacy","1024","2","48000","-16","experiment","SSSSS","2","even","33412","192340","NA","177133","194878","NA","198265","197201","1586","178653","NA","198263","198367","1581","198367","198780","Flanker Task","74","45019","84","yes","1024"
"87.0588235294","87.0588235294","533.717647059","533.717647059","black","no","legacy","legacy","legacy","0","congruent","uniform","0","undefined","0","h","0","0","0","84","84","0","84","84","0","0","0","84","84","0","84","84","09/04/18 09:30:40","600","The main experiment item","yes","FlankerTask.osexp","C:/Users/Anabel/Desktop","no","mono","no","18","no","white","no","yes","768","legacy","4","79","C:/Users/Anabel/Desktop/AW-subject-2.csv","legacy","Jazzy James","3.1.9","0","s","NA","s","s","NA","s","347","NA","31824","13685","NA","347","2","legacy","1024","2","48000","-16","experiment","HHHHH","2","even","33412","192340","NA","177133","194878","NA","199879","198812","1586","178653","NA","199877","199981","1581","199981","200331","Flanker Task","74","45366","85","yes","1024"
"87.2093023256","87.2093023256","534.906976744","534.906976744","black","no","legacy","legacy","legacy","0","incongruent","uniform","1","undefined","1","s","0","0","0","85","85","0","85","85","0","0","0","85","85","0","85","85","09/04/18 09:30:40","600","The main experiment item","yes","FlankerTask.osexp","C:/Users/Anabel/Desktop","no","mono","no","18","no","white","no","yes","768","legacy","5","79","C:/Users/Anabel/Desktop/AW-subject-2.csv","legacy","Jazzy James","3.1.9","0","s","NA","s","s","NA","s","636","NA","31824","13685","NA","636","2","legacy","1024","2","48000","-16","experiment","HHSHH","2","even","33412","192340","NA","200357","194878","NA","201922","200859","1586","178653","NA","201920","202024","1581","202024","202663","Flanker Task","75","46002","86","yes","1024"
"86.2068965517","86.2068965517","532.632183908","532.632183908","black","no","legacy","legacy","legacy","0","incongruent","uniform","0","undefined","0","h","0","0","0","86","86","0","86","86","0","0","0","86","86","0","86","86","09/04/18 09:30:40","600","The main experiment item","yes","FlankerTask.osexp","C:/Users/Anabel/Desktop","no","mono","no","18","no","white","no","yes","768","legacy","6","79","C:/Users/Anabel/Desktop/AW-subject-2.csv","legacy","Jazzy James","3.1.9","0","s","NA","s","s","NA","s","337","NA","31824","13685","NA","337","2","legacy","1024","2","48000","-16","experiment","SSHSS","2","even","33412","192340","NA","200357","202722","NA","204290","203225","1586","178653","NA","204288","204392","1581","204392","204733","Flanker Task","75","46339","87","yes","1024"
"86.3636363636","86.3636363636","531.693181818","531.693181818","black","no","legacy","legacy","legacy","0","congruent","uniform","1","undefined","1","s","0","0","0","87","87","0","87","87","0","0","0","87","87","0","87","87","09/04/18 09:30:40","600","The main experiment item","yes","FlankerTask.osexp","C:/Users/Anabel/Desktop","no","mono","no","18","no","white","no","yes","768","legacy","7","79","C:/Users/Anabel/Desktop/AW-subject-2.csv","legacy","Jazzy James","3.1.9","0","s","NA","s","s","NA","s","450","NA","31824","13685","NA","450","2","legacy","1024","2","48000","-16","experiment","SSSSS","2","even","33412","192340","NA","204789","202722","NA","206358","205291","1586","178653","NA","206356","206460","1581","206460","206914","Flanker Task","76","46789","88","yes","1024"
"86.5168539326","86.5168539326","530.112359551","530.112359551","black","no","legacy","legacy","legacy","0","incongruent","uniform","1","undefined","1","h","0","0","0","88","88","0","88","88","0","0","0","88","88","0","88","88","09/04/18 09:30:40","600","The main experiment item","yes","FlankerTask.osexp","C:/Users/Anabel/Desktop","no","mono","no","18","no","white","no","yes","768","legacy","8","79","C:/Users/Anabel/Desktop/AW-subject-2.csv","legacy","Jazzy James","3.1.9","0","h","NA","s","s","NA","h","391","NA","31824","13685","NA","391","2","legacy","1024","2","48000","-16","experiment","SSHSS","2","even","33412","192340","NA","204789","202722","NA","208037","206967","1586","178653","NA","208035","208139","1581","208139","208532","Flanker Task","77","47180","89","yes","1024"
"86.6666666667","86.6666666667","530.533333333","530.533333333","black","no","legacy","legacy","legacy","0","incongruent","uniform","1","undefined","1","s","0","0","0","89","89","0","89","89","0","0","0","89","89","0","89","89","09/04/18 09:30:40","600","The main experiment item","yes","FlankerTask.osexp","C:/Users/Anabel/Desktop","no","mono","no","18","no","white","no","yes","768","legacy","9","79","C:/Users/Anabel/Desktop/AW-subject-2.csv","legacy","Jazzy James","3.1.9","0","s","NA","s","s","NA","s","568","NA","31824","13685","NA","568","2","legacy","1024","2","48000","-16","experiment","HHSHH","2","even","33412","192340","NA","204789","202722","NA","209651","208578","1586","178653","NA","209649","209753","1581","209753","210324","Flanker Task","78","47748","90","yes","1024"
"86.8131868132","86.8131868132","529.131868132","529.131868132","black","no","legacy","legacy","legacy","0","congruent","uniform","1","undefined","1","s","0","0","0","90","90","0","90","90","0","0","0","90","90","0","90","90","09/04/18 09:30:40","600","The main experiment item","yes","FlankerTask.osexp","C:/Users/Anabel/Desktop","no","mono","no","18","no","white","no","yes","768","legacy","10","79","C:/Users/Anabel/Desktop/AW-subject-2.csv","legacy","Jazzy James","3.1.9","0","s","NA","s","s","NA","s","403","NA","31824","13685","NA","403","2","legacy","1024","2","48000","-16","experiment","SSSSS","2","even","33412","192340","NA","204789","202722","NA","211451","210379","1586","178653","NA","211449","211553","1581","211553","211959","Flanker Task","79","48151","91","yes","1024"
"86.9565217391","86.9565217391","529.663043478","529.663043478","black","no","legacy","legacy","legacy","0","incongruent","uniform","1","undefined","1","s","0","0","0","91","91","0","91","91","0","0","0","91","91","0","91","91","09/04/18 09:30:40","600","The main experiment item","yes","FlankerTask.osexp","C:/Users/Anabel/Desktop","no","mono","no","18","no","white","no","yes","768","legacy","11","79","C:/Users/Anabel/Desktop/AW-subject-2.csv","legacy","Jazzy James","3.1.9","0","s","NA","s","s","NA","s","578","NA","31824","13685","NA","578","2","legacy","1024","2","48000","-16","experiment","HHSHH","2","even","33412","192340","NA","204789","202722","NA","213078","212012","1586","178653","NA","213076","213180","1581","213180","213762","Flanker Task","80","48729","92","yes","1024"
"87.0967741935","87.0967741935","528.946236559","528.946236559","black","no","legacy","legacy","legacy","0","incongruent","uniform","1","undefined","1","s","0","0","0","92","92","0","92","92","0","0","0","92","92","0","92","92","09/04/18 09:30:40","600","The main experiment item","yes","FlankerTask.osexp","C:/Users/Anabel/Desktop","no","mono","no","18","no","white","no","yes","768","legacy","12","79","C:/Users/Anabel/Desktop/AW-subject-2.csv","legacy","Jazzy James","3.1.9","0","s","NA","s","s","NA","s","463","NA","31824","13685","NA","463","2","legacy","1024","2","48000","-16","experiment","HHSHH","2","even","33412","192340","NA","204789","202722","NA","214873","213801","1586","178653","NA","214870","214975","1581","214975","215441","Flanker Task","81","49192","93","yes","1024"
"87.2340425532","87.2340425532","528.372340426","528.372340426","black","no","legacy","legacy","legacy","0","incongruent","uniform","1","undefined","1","s","0","0","0","93","93","0","93","93","0","0","0","93","93","0","93","93","09/04/18 09:30:40","600","The main experiment item","yes","FlankerTask.osexp","C:/Users/Anabel/Desktop","no","mono","no","18","no","white","no","yes","768","legacy","13","79","C:/Users/Anabel/Desktop/AW-subject-2.csv","legacy","Jazzy James","3.1.9","0","s","NA","s","s","NA","s","475","NA","31824","13685","NA","475","2","legacy","1024","2","48000","-16","experiment","HHSHH","2","even","33412","192340","NA","204789","202722","NA","216564","215500","1586","178653","NA","216562","216666","1581","216666","217144","Flanker Task","82","49667","94","yes","1024"
"87.3684210526","87.3684210526","527.484210526","527.484210526","black","no","legacy","legacy","legacy","0","congruent","uniform","1","undefined","1","s","0","0","0","94","94","0","94","94","0","0","0","94","94","0","94","94","09/04/18 09:30:40","600","The main experiment item","yes","FlankerTask.osexp","C:/Users/Anabel/Desktop","no","mono","no","18","no","white","no","yes","768","legacy","14","79","C:/Users/Anabel/Desktop/AW-subject-2.csv","legacy","Jazzy James","3.1.9","0","s","NA","s","s","NA","s","444","NA","31824","13685","NA","444","2","legacy","1024","2","48000","-16","experiment","SSSSS","2","even","33412","192340","NA","204789","202722","NA","218268","217201","1586","178653","NA","218266","218371","1581","218371","218818","Flanker Task","83","50111","95","yes","1024"
"87.5","87.5","526.520833333","526.520833333","black","no","legacy","legacy","legacy","0","congruent","uniform","1","undefined","1","h","0","0","0","95","95","0","95","95","0","0","0","95","95","0","95","95","09/04/18 09:30:40","600","The main experiment item","yes","FlankerTask.osexp","C:/Users/Anabel/Desktop","no","mono","no","18","no","white","no","yes","768","legacy","15","79","C:/Users/Anabel/Desktop/AW-subject-2.csv","legacy","Jazzy James","3.1.9","0","h","NA","s","s","NA","h","435","NA","31824","13685","NA","435","2","legacy","1024","2","48000","-16","experiment","HHHHH","2","even","33412","192340","NA","204789","202722","NA","219921","218857","1586","178653","NA","219919","220024","1581","220024","220462","Flanker Task","84","50546","96","yes","1024"
"86.5979381443","86.5979381443","526.649484536","526.649484536","black","no","legacy","legacy","legacy","0","incongruent","uniform","0","undefined","0","h","0","0","0","96","96","0","96","96","0","0","0","96","96","0","96","96","09/04/18 09:30:40","600","The main experiment item","yes","FlankerTask.osexp","C:/Users/Anabel/Desktop","no","mono","no","18","no","white","no","yes","768","legacy","16","79","C:/Users/Anabel/Desktop/AW-subject-2.csv","legacy","Jazzy James","3.1.9","0","s","NA","s","s","NA","s","539","NA","31824","13685","NA","539","2","legacy","1024","2","48000","-16","experiment","SSHSS","2","even","33412","192340","NA","204789","202722","NA","221575","220511","1586","178653","NA","221573","221677","1581","221677","222219","Flanker Task","84","51085","97","yes","1024"
"86.7346938776","86.7346938776","527.153061224","527.153061224","black","no","legacy","legacy","legacy","0","incongruent","uniform","1","undefined","1","h","0","0","0","97","97","0","97","97","0","0","0","97","97","0","97","97","09/04/18 09:30:40","600","The main experiment item","yes","FlankerTask.osexp","C:/Users/Anabel/Desktop","no","mono","no","18","no","white","no","yes","768","legacy","17","79","C:/Users/Anabel/Desktop/AW-subject-2.csv","legacy","Jazzy James","3.1.9","0","h","NA","s","s","NA","h","576","NA","31824","13685","NA","576","2","legacy","1024","2","48000","-16","experiment","SSHSS","2","even","33412","192340","NA","222279","202722","NA","223848","222781","1586","178653","NA","223846","223950","1581","223950","224529","Flanker Task","85","51661","98","yes","1024"
"86.8686868687","86.8686868687","525.595959596","525.595959596","black","no","legacy","legacy","legacy","0","incongruent","uniform","1","undefined","1","h","0","0","0","98","98","0","98","98","0","0","0","98","98","0","98","98","09/04/18 09:30:40","600","The main experiment item","yes","FlankerTask.osexp","C:/Users/Anabel/Desktop","no","mono","no","18","no","white","no","yes","768","legacy","18","79","C:/Users/Anabel/Desktop/AW-subject-2.csv","legacy","Jazzy James","3.1.9","0","h","NA","s","s","NA","h","373","NA","31824","13685","NA","373","2","legacy","1024","2","48000","-16","experiment","SSHSS","2","even","33412","192340","NA","222279","202722","NA","225647","224579","1586","178653","NA","225645","225749","1581","225749","226125","Flanker Task","86","52034","99","yes","1024"
"87","87","524.32","524.32","black","no","legacy","legacy","legacy","0","incongruent","uniform","1","undefined","1","h","0","0","0","99","99","0","99","99","0","0","0","99","99","0","99","99","09/04/18 09:30:40","600","The main experiment item","yes","FlankerTask.osexp","C:/Users/Anabel/Desktop","no","mono","no","18","no","white","no","yes","768","legacy","19","79","C:/Users/Anabel/Desktop/AW-subject-2.csv","legacy","Jazzy James","3.1.9","0","h","NA","s","s","NA","h","398","NA","31824","13685","NA","398","2","legacy","1024","2","48000","-16","experiment","SSHSS","2","even","33412","192340","NA","222279","202722","NA","227242","226178","1586","178653","NA","227240","227344","1581","227344","227746","Flanker Task","87","52432","100","yes","1024"
"87.1287128713","87.1287128713","524.544554455","524.544554455","black","no","legacy","legacy","legacy","0","congruent","uniform","1","undefined","1","h","0","0","0","100","100","0","100","100","0","0","0","100","100","0","100","100","09/04/18 09:30:40","600","The main experiment item","yes","FlankerTask.osexp","C:/Users/Anabel/Desktop","no","mono","no","18","no","white","no","yes","768","legacy","20","79","C:/Users/Anabel/Desktop/AW-subject-2.csv","legacy","Jazzy James","3.1.9","0","h","NA","s","s","NA","h","547","NA","31824","13685","NA","547","2","legacy","1024","2","48000","-16","experiment","HHHHH","2","even","33412","192340","NA","222279","202722","NA","228865","227801","1586","178653","NA","228863","228967","1581","228967","229517","Flanker Task","88","52979","101","yes","1024"
"87.2549019608","87.2549019608","524.607843137","524.607843137","black","no","legacy","legacy","legacy","0","congruent","uniform","1","undefined","1","s","0","0","0","101","101","0","101","101","0","0","0","101","101","0","101","101","09/04/18 09:30:40","600","The main experiment item","yes","FlankerTask.osexp","C:/Users/Anabel/Desktop","no","mono","no","18","no","white","no","yes","768","legacy","21","79","C:/Users/Anabel/Desktop/AW-subject-2.csv","legacy","Jazzy James","3.1.9","0","s","NA","s","s","NA","s","531","NA","31824","13685","NA","531","2","legacy","1024","2","48000","-16","experiment","SSSSS","2","even","33412","192340","NA","222279","202722","NA","230625","229556","1586","178653","NA","230623","230727","1581","230727","231262","Flanker Task","89","53510","102","yes","1024"
"87.3786407767","87.3786407767","524.330097087","524.330097087","black","no","legacy","legacy","legacy","0","incongruent","uniform","1","undefined","1","h","0","0","0","102","102","0","102","102","0","0","0","102","102","0","102","102","09/04/18 09:30:40","600","The main experiment item","yes","FlankerTask.osexp","C:/Users/Anabel/Desktop","no","mono","no","18","no","white","no","yes","768","legacy","22","79","C:/Users/Anabel/Desktop/AW-subject-2.csv","legacy","Jazzy James","3.1.9","0","h","NA","s","s","NA","h","496","NA","31824","13685","NA","496","2","legacy","1024","2","48000","-16","experiment","SSHSS","2","even","33412","192340","NA","222279","202722","NA","232377","231312","1586","178653","NA","232375","232480","1581","232480","232979","Flanker Task","90","54006","103","yes","1024"
"87.5","87.5","524.096153846","524.096153846","black","no","legacy","legacy","legacy","0","incongruent","uniform","1","undefined","1","h","0","0","0","103","103","0","103","103","0","0","0","103","103","0","103","103","09/04/18 09:30:40","600","The main experiment item","yes","FlankerTask.osexp","C:/Users/Anabel/Desktop","no","mono","no","18","no","white","no","yes","768","legacy","23","79","C:/Users/Anabel/Desktop/AW-subject-2.csv","legacy","Jazzy James","3.1.9","0","h","NA","s","s","NA","h","500","NA","31824","13685","NA","500","2","legacy","1024","2","48000","-16","experiment","SSHSS","2","even","33412","192340","NA","222279","202722","NA","234129","233056","1586","178653","NA","234127","234231","1581","234231","234735","Flanker Task","91","54506","104","yes","1024"
"87.619047619","87.619047619","525.333333333","525.333333333","black","no","legacy","legacy","legacy","0","incongruent","uniform","1","undefined","1","s","0","0","0","104","104","0","104","104","0","0","0","104","104","0","104","104","09/04/18 09:30:40","600","The main experiment item","yes","FlankerTask.osexp","C:/Users/Anabel/Desktop","no","mono","no","18","no","white","no","yes","768","legacy","24","79","C:/Users/Anabel/Desktop/AW-subject-2.csv","legacy","Jazzy James","3.1.9","0","s","NA","s","s","NA","s","654","NA","31824","13685","NA","654","2","legacy","1024","2","48000","-16","experiment","HHSHH","2","even","33412","192340","NA","222279","202722","NA","235853","234789","1586","178653","NA","235851","235955","1581","235955","236612","Flanker Task","92","55160","105","yes","1024"
"87.7358490566","87.7358490566","525","525","black","no","legacy","legacy","legacy","0","incongruent","uniform","1","undefined","1","s","0","0","0","105","105","0","105","105","0","0","0","105","105","0","105","105","09/04/18 09:30:40","600","The main experiment item","yes","FlankerTask.osexp","C:/Users/Anabel/Desktop","no","mono","no","18","no","white","no","yes","768","legacy","25","79","C:/Users/Anabel/Desktop/AW-subject-2.csv","legacy","Jazzy James","3.1.9","0","s","NA","s","s","NA","s","490","NA","31824","13685","NA","490","2","legacy","1024","2","48000","-16","experiment","HHSHH","2","even","33412","192340","NA","222279","236667","NA","238242","237170","1586","178653","NA","238239","238344","1581","238344","238838","Flanker Task","93","55650","106","yes","1024"
"86.9158878505","86.9158878505","524.542056075","524.542056075","black","no","legacy","legacy","legacy","0","incongruent","uniform","0","undefined","0","h","0","0","0","106","106","0","106","106","0","0","0","106","106","0","106","106","09/04/18 09:30:40","600","The main experiment item","yes","FlankerTask.osexp","C:/Users/Anabel/Desktop","no","mono","no","18","no","white","no","yes","768","legacy","26","79","C:/Users/Anabel/Desktop/AW-subject-2.csv","legacy","Jazzy James","3.1.9","0","s","NA","s","s","NA","s","476","NA","31824","13685","NA","476","2","legacy","1024","2","48000","-16","experiment","SSHSS","2","even","33412","192340","NA","222279","236667","NA","239931","238867","1586","178653","NA","239929","240033","1581","240033","240513","Flanker Task","93","56126","107","yes","1024"
"87.037037037","87.037037037","524.648148148","524.648148148","black","no","legacy","legacy","legacy","0","congruent","uniform","1","undefined","1","s","0","0","0","107","107","0","107","107","0","0","0","107","107","0","107","107","09/04/18 09:30:40","600","The main experiment item","yes","FlankerTask.osexp","C:/Users/Anabel/Desktop","no","mono","no","18","no","white","no","yes","768","legacy","27","79","C:/Users/Anabel/Desktop/AW-subject-2.csv","legacy","Jazzy James","3.1.9","0","s","NA","s","s","NA","s","536","NA","31824","13685","NA","536","2","legacy","1024","2","48000","-16","experiment","SSSSS","2","even","33412","192340","NA","240567","236667","NA","242141","241069","1586","178653","NA","242139","242243","1581","242243","242783","Flanker Task","94","56662","108","yes","1024"
"87.1559633028","87.1559633028","524.486238532","524.486238532","black","no","legacy","legacy","legacy","0","incongruent","uniform","1","undefined","1","h","0","0","0","108","108","0","108","108","0","0","0","108","108","0","108","108","09/04/18 09:30:40","600","The main experiment item","yes","FlankerTask.osexp","C:/Users/Anabel/Desktop","no","mono","no","18","no","white","no","yes","768","legacy","28","79","C:/Users/Anabel/Desktop/AW-subject-2.csv","legacy","Jazzy James","3.1.9","0","h","NA","s","s","NA","h","507","NA","31824","13685","NA","507","2","legacy","1024","2","48000","-16","experiment","SSHSS","2","even","33412","192340","NA","240567","236667","NA","243909","242835","1586","178653","NA","243907","244011","1581","244011","244521","Flanker Task","95","57169","109","yes","1024"
"87.2727272727","87.2727272727","524.663636364","524.663636364","black","no","legacy","legacy","legacy","0","incongruent","uniform","1","undefined","1","h","0","0","0","109","109","0","109","109","0","0","0","109","109","0","109","109","09/04/18 09:30:40","600","The main experiment item","yes","FlankerTask.osexp","C:/Users/Anabel/Desktop","no","mono","no","18","no","white","no","yes","768","legacy","29","79","C:/Users/Anabel/Desktop/AW-subject-2.csv","legacy","Jazzy James","3.1.9","0","h","NA","s","s","NA","h","544","NA","31824","13685","NA","544","2","legacy","1024","2","48000","-16","experiment","SSHSS","2","even","33412","192340","NA","240567","236667","NA","245625","244556","1586","178653","NA","245623","245727","1581","245727","246273","Flanker Task","96","57713","110","yes","1024"
"87.3873873874","87.3873873874","525.072072072","525.072072072","black","no","legacy","legacy","legacy","0","congruent","uniform","1","undefined","1","h","0","0","0","110","110","0","110","110","0","0","0","110","110","0","110","110","09/04/18 09:30:40","600","The main experiment item","yes","FlankerTask.osexp","C:/Users/Anabel/Desktop","no","mono","no","18","no","white","no","yes","768","legacy","30","79","C:/Users/Anabel/Desktop/AW-subject-2.csv","legacy","Jazzy James","3.1.9","0","h","NA","s","s","NA","h","570","NA","31824","13685","NA","570","2","legacy","1024","2","48000","-16","experiment","HHHHH","2","even","33412","192340","NA","240567","236667","NA","247393","246323","1586","178653","NA","247390","247495","1581","247495","248069","Flanker Task","97","58283","111","yes","1024"
"87.5","87.5","525.044642857","525.044642857","black","no","legacy","legacy","legacy","0","incongruent","uniform","1","undefined","1","s","0","0","0","111","111","0","111","111","0","0","0","111","111","0","111","111","09/04/18 09:30:40","600","The main experiment item","yes","FlankerTask.osexp","C:/Users/Anabel/Desktop","no","mono","no","18","no","white","no","yes","768","legacy","31","79","C:/Users/Anabel/Desktop/AW-subject-2.csv","legacy","Jazzy James","3.1.9","0","s","NA","s","s","NA","s","522","NA","31824","13685","NA","522","2","legacy","1024","2","48000","-16","experiment","HHSHH","2","even","33412","192340","NA","240567","236667","NA","249192","248123","1586","178653","NA","249190","249295","1581","249295","249821","Flanker Task","98","58805","112","yes","1024"
"87.610619469","87.610619469","525.769911504","525.769911504","black","no","legacy","legacy","legacy","0","incongruent","uniform","1","undefined","1","s","0","0","0","112","112","0","112","112","0","0","0","112","112","0","112","112","09/04/18 09:30:40","600","The main experiment item","yes","FlankerTask.osexp","C:/Users/Anabel/Desktop","no","mono","no","18","no","white","no","yes","768","legacy","32","79","C:/Users/Anabel/Desktop/AW-subject-2.csv","legacy","Jazzy James","3.1.9","0","s","NA","s","s","NA","s","607","NA","31824","13685","NA","607","2","legacy","1024","2","48000","-16","experiment","HHSHH","2","even","33412","192340","NA","240567","236667","NA","250941","249878","1586","178653","NA","250939","251043","1581","251043","251654","Flanker Task","99","59412","113","yes","1024"
"87.7192982456","87.7192982456","525.728070175","525.728070175","black","no","legacy","legacy","legacy","0","incongruent","uniform","1","undefined","1","h","0","0","0","113","113","0","113","113","0","0","0","113","113","0","113","113","09/04/18 09:30:40","600","The main experiment item","yes","FlankerTask.osexp","C:/Users/Anabel/Desktop","no","mono","no","18","no","white","no","yes","768","legacy","33","79","C:/Users/Anabel/Desktop/AW-subject-2.csv","legacy","Jazzy James","3.1.9","0","h","NA","s","s","NA","h","521","NA","31824","13685","NA","521","2","legacy","1024","2","48000","-16","experiment","SSHSS","2","even","33412","192340","NA","240567","251712","NA","253279","252215","1586","178653","NA","253277","253382","1581","253382","253907","Flanker Task","100","59933","114","yes","1024"
"87.8260869565","87.8260869565","526.443478261","526.443478261","black","no","legacy","legacy","legacy","0","incongruent","uniform","1","undefined","1","s","0","0","0","114","114","0","114","114","0","0","0","114","114","0","114","114","09/04/18 09:30:40","600","The main experiment item","yes","FlankerTask.osexp","C:/Users/Anabel/Desktop","no","mono","no","18","no","white","no","yes","768","legacy","34","79","C:/Users/Anabel/Desktop/AW-subject-2.csv","legacy","Jazzy James","3.1.9","0","s","NA","s","s","NA","s","608","NA","31824","13685","NA","608","2","legacy","1024","2","48000","-16","experiment","HHSHH","2","even","33412","192340","NA","240567","251712","NA","255039","253967","1586","178653","NA","255037","255141","1581","255141","255753","Flanker Task","101","60541","115","yes","1024"
"87.9310344828","87.9310344828","526.49137931","526.49137931","black","no","legacy","legacy","legacy","0","incongruent","uniform","1","undefined","1","h","0","0","0","115","115","0","115","115","0","0","0","115","115","0","115","115","09/04/18 09:30:40","600","The main experiment item","yes","FlankerTask.osexp","C:/Users/Anabel/Desktop","no","mono","no","18","no","white","no","yes","768","legacy","35","79","C:/Users/Anabel/Desktop/AW-subject-2.csv","legacy","Jazzy James","3.1.9","0","h","NA","s","s","NA","h","532","NA","31824","13685","NA","532","2","legacy","1024","2","48000","-16","experiment","SSHSS","2","even","33412","192340","NA","240567","255813","NA","257384","256315","1586","178653","NA","257382","257486","1581","257486","258022","Flanker Task","102","61073","116","yes","1024"
"88.0341880342","88.0341880342","525.324786325","525.324786325","black","no","legacy","legacy","legacy","0","congruent","uniform","1","undefined","1","s","0","0","0","116","116","0","116","116","0","0","0","116","116","0","116","116","09/04/18 09:30:40","600","The main experiment item","yes","FlankerTask.osexp","C:/Users/Anabel/Desktop","no","mono","no","18","no","white","no","yes","768","legacy","36","79","C:/Users/Anabel/Desktop/AW-subject-2.csv","legacy","Jazzy James","3.1.9","0","s","NA","s","s","NA","s","390","NA","31824","13685","NA","390","2","legacy","1024","2","48000","-16","experiment","SSSSS","2","even","33412","192340","NA","240567","255813","NA","259150","258078","1586","178653","NA","259148","259252","1581","259252","259646","Flanker Task","103","61463","117","yes","1024"
"88.1355932203","88.1355932203","525.033898305","525.033898305","black","no","legacy","legacy","legacy","0","incongruent","uniform","1","undefined","1","s","0","0","0","117","117","0","117","117","0","0","0","117","117","0","117","117","09/04/18 09:30:40","600","The main experiment item","yes","FlankerTask.osexp","C:/Users/Anabel/Desktop","no","mono","no","18","no","white","no","yes","768","legacy","37","79","C:/Users/Anabel/Desktop/AW-subject-2.csv","legacy","Jazzy James","3.1.9","0","s","NA","s","s","NA","s","491","NA","31824","13685","NA","491","2","legacy","1024","2","48000","-16","experiment","HHSHH","2","even","33412","192340","NA","240567","255813","NA","260746","259679","1586","178653","NA","260744","260848","1581","260848","261342","Flanker Task","104","61954","118","yes","1024"
"88.2352941176","88.2352941176","524.151260504","524.151260504","black","no","legacy","legacy","legacy","0","congruent","uniform","1","undefined","1","s","0","0","0","118","118","0","118","118","0","0","0","118","118","0","118","118","09/04/18 09:30:40","600","The main experiment item","yes","FlankerTask.osexp","C:/Users/Anabel/Desktop","no","mono","no","18","no","white","no","yes","768","legacy","38","79","C:/Users/Anabel/Desktop/AW-subject-2.csv","legacy","Jazzy James","3.1.9","0","s","NA","s","s","NA","s","420","NA","31824","13685","NA","420","2","legacy","1024","2","48000","-16","experiment","SSSSS","2","even","33412","192340","NA","240567","255813","NA","262457","261390","1586","178653","NA","262455","262559","1581","262559","262983","Flanker Task","105","62374","119","yes","1024"
"88.3333333333","88.3333333333","525.166666667","525.166666667","black","no","legacy","legacy","legacy","0","incongruent","uniform","1","undefined","1","s","0","0","0","119","119","0","119","119","0","0","0","119","119","0","119","119","09/04/18 09:30:40","600","The main experiment item","yes","FlankerTask.osexp","C:/Users/Anabel/Desktop","no","mono","no","18","no","white","no","yes","768","legacy","39","79","C:/Users/Anabel/Desktop/AW-subject-2.csv","legacy","Jazzy James","3.1.9","0","s","NA","s","s","NA","s","646","NA","31824","13685","NA","646","2","legacy","1024","2","48000","-16","experiment","HHSHH","2","even","33412","192340","NA","240567","255813","NA","264128","263056","1586","178653","NA","264126","264230","1581","264230","264880","Flanker Task","106","63020","120","yes","1024"
"88.4297520661","88.4297520661","525.644628099","525.644628099","black","no","legacy","legacy","legacy","0","congruent","uniform","1","undefined","1","h","0","0","0","120","120","0","120","120","0","0","0","120","120","0","120","120","09/04/18 09:30:40","600","The main experiment item","yes","FlankerTask.osexp","C:/Users/Anabel/Desktop","no","mono","no","18","no","white","no","yes","768","legacy","40","79","C:/Users/Anabel/Desktop/AW-subject-2.csv","legacy","Jazzy James","3.1.9","0","h","NA","s","s","NA","h","583","NA","31824","13685","NA","583","2","legacy","1024","2","48000","-16","experiment","HHHHH","2","even","33412","192340","NA","240567","264957","NA","266530","265459","1586","178653","NA","266528","266632","1581","266632","267219","Flanker Task","107","63603","121","yes","1024"
"88.5245901639","88.5245901639","524.942622951","524.942622951","black","no","legacy","legacy","legacy","0","congruent","uniform","1","undefined","1","h","0","0","0","121","121","0","121","121","0","0","0","121","121","0","121","121","09/04/18 09:30:40","600","The main experiment item","yes","FlankerTask.osexp","C:/Users/Anabel/Desktop","no","mono","no","18","no","white","no","yes","768","legacy","41","79","C:/Users/Anabel/Desktop/AW-subject-2.csv","legacy","Jazzy James","3.1.9","0","h","NA","s","s","NA","h","440","NA","31824","13685","NA","440","2","legacy","1024","2","48000","-16","experiment","HHHHH","2","even","33412","192340","NA","240567","264957","NA","268342","267279","1586","178653","NA","268340","268444","1581","268444","268888","Flanker Task","108","64043","122","yes","1024"
"88.6178861789","88.6178861789","524.414634146","524.414634146","black","no","legacy","legacy","legacy","0","congruent","uniform","1","undefined","1","s","0","0","0","122","122","0","122","122","0","0","0","122","122","0","122","122","09/04/18 09:30:40","600","The main experiment item","yes","FlankerTask.osexp","C:/Users/Anabel/Desktop","no","mono","no","18","no","white","no","yes","768","legacy","42","79","C:/Users/Anabel/Desktop/AW-subject-2.csv","legacy","Jazzy James","3.1.9","0","s","NA","s","s","NA","s","460","NA","31824","13685","NA","460","2","legacy","1024","2","48000","-16","experiment","SSSSS","2","even","33412","192340","NA","240567","264957","NA","270015","268946","1586","178653","NA","270013","270117","1581","270117","270582","Flanker Task","109","64503","123","yes","1024"
"88.7096774194","88.7096774194","524.411290323","524.411290323","black","no","legacy","legacy","legacy","0","incongruent","uniform","1","undefined","1","s","0","0","0","123","123","0","123","123","0","0","0","123","123","0","123","123","09/04/18 09:30:40","600","The main experiment item","yes","FlankerTask.osexp","C:/Users/Anabel/Desktop","no","mono","no","18","no","white","no","yes","768","legacy","43","79","C:/Users/Anabel/Desktop/AW-subject-2.csv","legacy","Jazzy James","3.1.9","0","s","NA","s","s","NA","s","524","NA","31824","13685","NA","524","2","legacy","1024","2","48000","-16","experiment","HHSHH","2","even","33412","192340","NA","240567","264957","NA","271699","270634","1586","178653","NA","271697","271801","1581","271801","272329","Flanker Task","110","65027","124","yes","1024"
"88.8","88.8","524.552","524.552","black","no","legacy","legacy","legacy","0","congruent","uniform","1","undefined","1","h","0","0","0","124","124","0","124","124","0","0","0","124","124","0","124","124","09/04/18 09:30:40","600","The main experiment item","yes","FlankerTask.osexp","C:/Users/Anabel/Desktop","no","mono","no","18","no","white","no","yes","768","legacy","44","79","C:/Users/Anabel/Desktop/AW-subject-2.csv","legacy","Jazzy James","3.1.9","0","h","NA","s","s","NA","h","542","NA","31824","13685","NA","542","2","legacy","1024","2","48000","-16","experiment","HHHHH","2","even","33412","192340","NA","240567","264957","NA","273436","272368","1586","178653","NA","273434","273538","1581","273538","274084","Flanker Task","111","65569","125","yes","1024"
"88.8888888889","88.8888888889","524.492063492","524.492063492","black","no","legacy","legacy","legacy","0","congruent","uniform","1","undefined","1","h","0","0","0","125","125","0","125","125","0","0","0","125","125","0","125","125","09/04/18 09:30:40","600","The main experiment item","yes","FlankerTask.osexp","C:/Users/Anabel/Desktop","no","mono","no","18","no","white","no","yes","768","legacy","45","79","C:/Users/Anabel/Desktop/AW-subject-2.csv","legacy","Jazzy James","3.1.9","0","h","NA","s","s","NA","h","517","NA","31824","13685","NA","517","2","legacy","1024","2","48000","-16","experiment","HHHHH","2","even","33412","192340","NA","240567","264957","NA","275203","274134","1586","178653","NA","275201","275305","1581","275305","275826","Flanker Task","112","66086","126","yes","1024"
"88.9763779528","88.9763779528","524.157480315","524.157480315","black","no","legacy","legacy","legacy","0","incongruent","uniform","1","undefined","1","s","0","0","0","126","126","0","126","126","0","0","0","126","126","0","126","126","09/04/18 09:30:40","600","The main experiment item","yes","FlankerTask.osexp","C:/Users/Anabel/Desktop","no","mono","no","18","no","white","no","yes","768","legacy","46","79","C:/Users/Anabel/Desktop/AW-subject-2.csv","legacy","Jazzy James","3.1.9","0","s","NA","s","s","NA","s","482","NA","31824","13685","NA","482","2","legacy","1024","2","48000","-16","experiment","HHSHH","2","even","33412","192340","NA","240567","264957","NA","276946","275879","1586","178653","NA","276944","277048","1581","277048","277534","Flanker Task","113","66568","127","yes","1024"
