"acc","accuracy","average_response_time","avg_rt","background","canvas_backend","clock_backend","color_backend","compensation","condition","coordinates","correct","correct_Instructions1","correct_Keyboard_Response","correct_response","count_Block1","count_Block2","count_Block3","count_Error_Feedback","count_Faster","count_Finish","count_Fixation","count_ISI","count_Instructions1","count_Instructions2","count_Insturctions3","count_Keyboard_Response","count_Logger","count_Sequence","count_Stimulus","count_experiment","datetime","deadline","description","disable_garbage_collection","experiment_file","experiment_path","font_bold","font_family","font_italic","font_size","font_underline","foreground","form_clicks","fullscreen","height","keyboard_backend","live_row","live_row_Block1","logfile","mouse_backend","opensesame_codename","opensesame_version","repeat_cycle","response","response_Finish","response_Instructions1","response_Instructions2","response_Insturctions3","response_Keyboard_Response","response_time","response_time_Finish","response_time_Instructions1","response_time_Instructions2","response_time_Insturctions3","response_time_Keyboard_Response","round_decimals","sampler_backend","sound_buf_size","sound_channels","sound_freq","sound_sample_size","start","stimulus","subject_nr","subject_parity","time_Block1","time_Block2","time_Block3","time_Error_Feedback","time_Faster","time_Finish","time_Fixation","time_ISI","time_Instructions1","time_Instructions2","time_Insturctions3","time_Keyboard_Response","time_Logger","time_Sequence","time_Stimulus","time_experiment","title","total_correct","total_response_time","total_responses","uniform_coordinates","width"
"100","100","745","745","black","legacy","legacy","legacy","0","Congruent","uniform","1","undefined","1","h","0","0","0","0","0","0","0","0","0","0","0","0","0","0","0","0","Fri Sep  7 13:48:00 2018","1500","The main experiment item","yes","FlankerTask.osexp","/Users/emmaleemorgan/Desktop","no","mono","no","18","no","white","no","yes","768","legacy","0","0","/Users/emmaleemorgan/Desktop/EM subject-3, f, 37.csv","legacy","Kafkaesque Koffka","3.2.5","0","h","NA","s","NA","NA","h","745","NA","19877","NA","NA","745","2","legacy","1024","2","48000","-16","experiment","HHHHH","3","odd","23465","NA","NA","NA","NA","NA","23540","NA","3573","NA","NA","23652","24399","23530","23652","3551","Flanker Task","1","745","1","yes","1024"
"100","100","651","651","black","legacy","legacy","legacy","0","Congruent","uniform","1","undefined","1","s","0","0","0","1","1","0","1","1","0","0","0","1","1","1","1","0","Fri Sep  7 13:48:00 2018","1500","The main experiment item","yes","FlankerTask.osexp","/Users/emmaleemorgan/Desktop","no","mono","no","18","no","white","no","yes","768","legacy","1","1","/Users/emmaleemorgan/Desktop/EM subject-3, f, 37.csv","legacy","Kafkaesque Koffka","3.2.5","0","s","NA","s","NA","NA","s","557","NA","19877","NA","NA","557","2","legacy","1024","2","48000","-16","experiment","SSSSS","3","odd","23465","NA","NA","NA","NA","NA","25494","24414","3573","NA","NA","25607","26165","25483","25607","3551","Flanker Task","2","1302","2","yes","1024"
"100","100","677","677","black","legacy","legacy","legacy","0","Incongruent","uniform","1","undefined","1","s","0","0","0","2","2","0","2","2","0","0","0","2","2","2","2","0","Fri Sep  7 13:48:00 2018","1500","The main experiment item","yes","FlankerTask.osexp","/Users/emmaleemorgan/Desktop","no","mono","no","18","no","white","no","yes","768","legacy","2","2","/Users/emmaleemorgan/Desktop/EM subject-3, f, 37.csv","legacy","Kafkaesque Koffka","3.2.5","0","s","NA","s","NA","NA","s","729","NA","19877","NA","NA","729","2","legacy","1024","2","48000","-16","experiment","HHSHH","3","odd","23465","NA","NA","NA","NA","NA","27251","26179","3573","NA","NA","27364","28094","27241","27364","3551","Flanker Task","3","2031","3","yes","1024"
"100","100","654.5","654.5","black","legacy","legacy","legacy","0","Congruent","uniform","1","undefined","1","h","0","0","0","3","3","0","3","3","0","0","0","3","3","3","3","0","Fri Sep  7 13:48:00 2018","1500","The main experiment item","yes","FlankerTask.osexp","/Users/emmaleemorgan/Desktop","no","mono","no","18","no","white","no","yes","768","legacy","3","3","/Users/emmaleemorgan/Desktop/EM subject-3, f, 37.csv","legacy","Kafkaesque Koffka","3.2.5","0","h","NA","s","NA","NA","h","587","NA","19877","NA","NA","587","2","legacy","1024","2","48000","-16","experiment","HHHHH","3","odd","23465","NA","NA","NA","NA","NA","29178","28109","3573","NA","NA","29289","29877","29167","29289","3551","Flanker Task","4","2618","4","yes","1024"
"100","100","699.2","699.2","black","legacy","legacy","legacy","0","Incongruent","uniform","1","undefined","1","h","0","0","0","4","4","0","4","4","0","0","0","4","4","4","4","0","Fri Sep  7 13:48:00 2018","1500","The main experiment item","yes","FlankerTask.osexp","/Users/emmaleemorgan/Desktop","no","mono","no","18","no","white","no","yes","768","legacy","4","4","/Users/emmaleemorgan/Desktop/EM subject-3, f, 37.csv","legacy","Kafkaesque Koffka","3.2.5","0","h","NA","s","NA","NA","h","878","NA","19877","NA","NA","878","2","legacy","1024","2","48000","-16","experiment","SSHSS","3","odd","23465","NA","NA","NA","NA","NA","30958","29890","3573","NA","NA","31069","31949","30948","31069","3551","Flanker Task","5","3496","5","yes","1024"
"100","100","679.833333333","679.833333333","black","legacy","legacy","legacy","0","Congruent","uniform","1","undefined","1","h","0","0","0","5","5","0","5","5","0","0","0","5","5","5","5","0","Fri Sep  7 13:48:00 2018","1500","The main experiment item","yes","FlankerTask.osexp","/Users/emmaleemorgan/Desktop","no","mono","no","18","no","white","no","yes","768","legacy","5","5","/Users/emmaleemorgan/Desktop/EM subject-3, f, 37.csv","legacy","Kafkaesque Koffka","3.2.5","0","h","NA","s","NA","NA","h","583","NA","19877","NA","NA","583","2","legacy","1024","2","48000","-16","experiment","HHHHH","3","odd","23465","NA","NA","NA","NA","NA","33030","31960","3573","NA","NA","33143","33728","33018","33142","3551","Flanker Task","6","4079","6","yes","1024"
"100","100","661","661","black","legacy","legacy","legacy","0","Congruent","uniform","1","undefined","1","s","0","0","0","6","6","0","6","6","0","0","0","6","6","6","6","0","Fri Sep  7 13:48:00 2018","1500","The main experiment item","yes","FlankerTask.osexp","/Users/emmaleemorgan/Desktop","no","mono","no","18","no","white","no","yes","768","legacy","6","6","/Users/emmaleemorgan/Desktop/EM subject-3, f, 37.csv","legacy","Kafkaesque Koffka","3.2.5","0","s","NA","s","NA","NA","s","548","NA","19877","NA","NA","548","2","legacy","1024","2","48000","-16","experiment","SSSSS","3","odd","23465","NA","NA","NA","NA","NA","34814","33741","3573","NA","NA","34925","35475","34801","34925","3551","Flanker Task","7","4627","7","yes","1024"
"100","100","655.125","655.125","black","legacy","legacy","legacy","0","Incongruent","uniform","1","undefined","1","h","0","0","0","7","7","0","7","7","0","0","0","7","7","7","7","0","Fri Sep  7 13:48:00 2018","1500","The main experiment item","yes","FlankerTask.osexp","/Users/emmaleemorgan/Desktop","no","mono","no","18","no","white","no","yes","768","legacy","7","7","/Users/emmaleemorgan/Desktop/EM subject-3, f, 37.csv","legacy","Kafkaesque Koffka","3.2.5","0","h","NA","s","NA","NA","h","614","NA","19877","NA","NA","614","2","legacy","1024","2","48000","-16","experiment","SSHSS","3","odd","23465","NA","NA","NA","NA","NA","36555","35487","3573","NA","NA","36670","37286","36545","36670","3551","Flanker Task","8","5241","8","yes","1024"
"100","100","639.555555556","639.555555556","black","legacy","legacy","legacy","0","Congruent","uniform","1","undefined","1","s","0","0","0","8","8","0","8","8","0","0","0","8","8","8","8","0","Fri Sep  7 13:48:00 2018","1500","The main experiment item","yes","FlankerTask.osexp","/Users/emmaleemorgan/Desktop","no","mono","no","18","no","white","no","yes","768","legacy","8","8","/Users/emmaleemorgan/Desktop/EM subject-3, f, 37.csv","legacy","Kafkaesque Koffka","3.2.5","0","s","NA","s","NA","NA","s","515","NA","19877","NA","NA","515","2","legacy","1024","2","48000","-16","experiment","SSSSS","3","odd","23465","NA","NA","NA","NA","NA","38366","37298","3573","NA","NA","38477","38994","38356","38477","3551","Flanker Task","9","5756","9","yes","1024"
"100","100","631.4","631.4","black","legacy","legacy","legacy","0","Congruent","uniform","1","undefined","1","h","0","0","0","9","9","0","9","9","0","0","0","9","9","9","9","0","Fri Sep  7 13:48:00 2018","1500","The main experiment item","yes","FlankerTask.osexp","/Users/emmaleemorgan/Desktop","no","mono","no","18","no","white","no","yes","768","legacy","9","9","/Users/emmaleemorgan/Desktop/EM subject-3, f, 37.csv","legacy","Kafkaesque Koffka","3.2.5","0","h","NA","s","NA","NA","h","558","NA","19877","NA","NA","558","2","legacy","1024","2","48000","-16","experiment","HHHHH","3","odd","23465","NA","NA","NA","NA","NA","40072","39005","3573","NA","NA","40187","40747","40062","40187","3551","Flanker Task","10","6314","10","yes","1024"
"100","100","636.181818182","636.181818182","black","legacy","legacy","legacy","0","Incongruent","uniform","1","undefined","1","s","0","0","0","10","10","0","10","10","0","0","0","10","10","10","10","0","Fri Sep  7 13:48:00 2018","1500","The main experiment item","yes","FlankerTask.osexp","/Users/emmaleemorgan/Desktop","no","mono","no","18","no","white","no","yes","768","legacy","10","10","/Users/emmaleemorgan/Desktop/EM subject-3, f, 37.csv","legacy","Kafkaesque Koffka","3.2.5","0","s","NA","s","NA","NA","s","684","NA","19877","NA","NA","684","2","legacy","1024","2","48000","-16","experiment","HHSHH","3","odd","23465","NA","NA","NA","NA","NA","41830","40759","3573","NA","NA","41942","42628","41820","41942","3551","Flanker Task","11","6998","11","yes","1024"
"100","100","641.833333333","641.833333333","black","legacy","legacy","legacy","0","Congruent","uniform","1","undefined","1","s","0","0","0","11","11","0","11","11","0","0","0","11","11","11","11","0","Fri Sep  7 13:48:00 2018","1500","The main experiment item","yes","FlankerTask.osexp","/Users/emmaleemorgan/Desktop","no","mono","no","18","no","white","no","yes","768","legacy","11","11","/Users/emmaleemorgan/Desktop/EM subject-3, f, 37.csv","legacy","Kafkaesque Koffka","3.2.5","0","s","NA","s","NA","NA","s","704","NA","19877","NA","NA","704","2","legacy","1024","2","48000","-16","experiment","SSSSS","3","odd","23465","NA","NA","NA","NA","NA","43713","42642","3573","NA","NA","43826","44532","43704","43826","3551","Flanker Task","12","7702","12","yes","1024"
"100","100","628.538461538","628.538461538","black","legacy","legacy","legacy","0","Congruent","uniform","1","undefined","1","h","0","0","0","12","12","0","12","12","0","0","0","12","12","12","12","0","Fri Sep  7 13:48:00 2018","1500","The main experiment item","yes","FlankerTask.osexp","/Users/emmaleemorgan/Desktop","no","mono","no","18","no","white","no","yes","768","legacy","12","12","/Users/emmaleemorgan/Desktop/EM subject-3, f, 37.csv","legacy","Kafkaesque Koffka","3.2.5","0","h","NA","s","NA","NA","h","469","NA","19877","NA","NA","469","2","legacy","1024","2","48000","-16","experiment","HHHHH","3","odd","23465","NA","NA","NA","NA","NA","45618","44546","3573","NA","NA","45731","46202","45608","45730","3551","Flanker Task","13","8171","13","yes","1024"
"100","100","619.642857143","619.642857143","black","legacy","legacy","legacy","0","Congruent","uniform","1","undefined","1","h","0","0","0","13","13","0","13","13","0","0","0","13","13","13","13","0","Fri Sep  7 13:48:00 2018","1500","The main experiment item","yes","FlankerTask.osexp","/Users/emmaleemorgan/Desktop","no","mono","no","18","no","white","no","yes","768","legacy","13","13","/Users/emmaleemorgan/Desktop/EM subject-3, f, 37.csv","legacy","Kafkaesque Koffka","3.2.5","0","h","NA","s","NA","NA","h","504","NA","19877","NA","NA","504","2","legacy","1024","2","48000","-16","experiment","HHHHH","3","odd","23465","NA","NA","NA","NA","NA","47286","46215","3573","NA","NA","47399","47905","47276","47399","3551","Flanker Task","14","8675","14","yes","1024"
"100","100","610.933333333","610.933333333","black","legacy","legacy","legacy","0","Incongruent","uniform","1","undefined","1","s","0","0","0","14","14","0","14","14","0","0","0","14","14","14","14","0","Fri Sep  7 13:48:00 2018","1500","The main experiment item","yes","FlankerTask.osexp","/Users/emmaleemorgan/Desktop","no","mono","no","18","no","white","no","yes","768","legacy","14","14","/Users/emmaleemorgan/Desktop/EM subject-3, f, 37.csv","legacy","Kafkaesque Koffka","3.2.5","0","s","NA","s","NA","NA","s","489","NA","19877","NA","NA","489","2","legacy","1024","2","48000","-16","experiment","HHSHH","3","odd","23465","NA","NA","NA","NA","NA","48989","47918","3573","NA","NA","49100","49590","48979","49100","3551","Flanker Task","15","9164","15","yes","1024"
"100","100","607.375","607.375","black","legacy","legacy","legacy","0","Incongruent","uniform","1","undefined","1","h","0","0","0","15","15","0","15","15","0","0","0","15","15","15","15","0","Fri Sep  7 13:48:00 2018","1500","The main experiment item","yes","FlankerTask.osexp","/Users/emmaleemorgan/Desktop","no","mono","no","18","no","white","no","yes","768","legacy","15","15","/Users/emmaleemorgan/Desktop/EM subject-3, f, 37.csv","legacy","Kafkaesque Koffka","3.2.5","0","h","NA","s","NA","NA","h","554","NA","19877","NA","NA","554","2","legacy","1024","2","48000","-16","experiment","SSHSS","3","odd","23465","NA","NA","NA","NA","NA","50684","49604","3573","NA","NA","50794","51350","50671","50794","3551","Flanker Task","16","9718","16","yes","1024"
"100","100","604.823529412","604.823529412","black","legacy","legacy","legacy","0","Incongruent","uniform","1","undefined","1","h","0","0","0","16","16","0","16","16","0","0","0","16","16","16","16","0","Fri Sep  7 13:48:00 2018","1500","The main experiment item","yes","FlankerTask.osexp","/Users/emmaleemorgan/Desktop","no","mono","no","18","no","white","no","yes","768","legacy","16","16","/Users/emmaleemorgan/Desktop/EM subject-3, f, 37.csv","legacy","Kafkaesque Koffka","3.2.5","0","h","NA","s","NA","NA","h","564","NA","19877","NA","NA","564","2","legacy","1024","2","48000","-16","experiment","SSHSS","3","odd","23465","NA","NA","NA","NA","NA","52450","51364","3573","NA","NA","52561","53127","52438","52561","3551","Flanker Task","17","10282","17","yes","1024"
"100","100","597.777777778","597.777777778","black","legacy","legacy","legacy","0","Congruent","uniform","1","undefined","1","s","0","0","0","17","17","0","17","17","0","0","0","17","17","17","17","0","Fri Sep  7 13:48:00 2018","1500","The main experiment item","yes","FlankerTask.osexp","/Users/emmaleemorgan/Desktop","no","mono","no","18","no","white","no","yes","768","legacy","17","17","/Users/emmaleemorgan/Desktop/EM subject-3, f, 37.csv","legacy","Kafkaesque Koffka","3.2.5","0","s","NA","s","NA","NA","s","478","NA","19877","NA","NA","478","2","legacy","1024","2","48000","-16","experiment","SSSSS","3","odd","23465","NA","NA","NA","NA","NA","54208","53139","3573","NA","NA","54317","54797","54198","54317","3551","Flanker Task","18","10760","18","yes","1024"
"100","100","590.631578947","590.631578947","black","legacy","legacy","legacy","0","Incongruent","uniform","1","undefined","1","s","0","0","0","18","18","0","18","18","0","0","0","18","18","18","18","0","Fri Sep  7 13:48:00 2018","1500","The main experiment item","yes","FlankerTask.osexp","/Users/emmaleemorgan/Desktop","no","mono","no","18","no","white","no","yes","768","legacy","18","18","/Users/emmaleemorgan/Desktop/EM subject-3, f, 37.csv","legacy","Kafkaesque Koffka","3.2.5","0","s","NA","s","NA","NA","s","462","NA","19877","NA","NA","462","2","legacy","1024","2","48000","-16","experiment","HHSHH","3","odd","23465","NA","NA","NA","NA","NA","55877","54808","3573","NA","NA","55988","56452","55867","55988","3551","Flanker Task","19","11222","19","yes","1024"
"100","100","586.8","586.8","black","legacy","legacy","legacy","0","Congruent","uniform","1","undefined","1","s","0","0","0","19","19","0","19","19","0","0","0","19","19","19","19","0","Fri Sep  7 13:48:00 2018","1500","The main experiment item","yes","FlankerTask.osexp","/Users/emmaleemorgan/Desktop","no","mono","no","18","no","white","no","yes","768","legacy","19","19","/Users/emmaleemorgan/Desktop/EM subject-3, f, 37.csv","legacy","Kafkaesque Koffka","3.2.5","0","s","NA","s","NA","NA","s","514","NA","19877","NA","NA","514","2","legacy","1024","2","48000","-16","experiment","SSSSS","3","odd","23465","NA","NA","NA","NA","NA","57535","56465","3573","NA","NA","57645","58161","57525","57644","3551","Flanker Task","20","11736","20","yes","1024"
"100","100","584.047619048","584.047619048","black","legacy","legacy","legacy","0","Congruent","uniform","1","undefined","1","h","0","0","0","20","20","0","20","20","0","0","0","20","20","20","20","0","Fri Sep  7 13:48:00 2018","1500","The main experiment item","yes","FlankerTask.osexp","/Users/emmaleemorgan/Desktop","no","mono","no","18","no","white","no","yes","768","legacy","20","20","/Users/emmaleemorgan/Desktop/EM subject-3, f, 37.csv","legacy","Kafkaesque Koffka","3.2.5","0","h","NA","s","NA","NA","h","529","NA","19877","NA","NA","529","2","legacy","1024","2","48000","-16","experiment","HHHHH","3","odd","23465","NA","NA","NA","NA","NA","59240","58172","3573","NA","NA","59351","59882","59230","59351","3551","Flanker Task","21","12265","21","yes","1024"
"100","100","581.181818182","581.181818182","black","legacy","legacy","legacy","0","Incongruent","uniform","1","undefined","1","h","0","0","0","21","21","0","21","21","0","0","0","21","21","21","21","0","Fri Sep  7 13:48:00 2018","1500","The main experiment item","yes","FlankerTask.osexp","/Users/emmaleemorgan/Desktop","no","mono","no","18","no","white","no","yes","768","legacy","21","21","/Users/emmaleemorgan/Desktop/EM subject-3, f, 37.csv","legacy","Kafkaesque Koffka","3.2.5","0","h","NA","s","NA","NA","h","521","NA","19877","NA","NA","521","2","legacy","1024","2","48000","-16","experiment","SSHSS","3","odd","23465","NA","NA","NA","NA","NA","60964","59895","3573","NA","NA","61075","61599","60954","61075","3551","Flanker Task","22","12786","22","yes","1024"
"100","100","576.608695652","576.608695652","black","legacy","legacy","legacy","0","Congruent","uniform","1","undefined","1","s","0","0","0","22","22","0","22","22","0","0","0","22","22","22","22","0","Fri Sep  7 13:48:00 2018","1500","The main experiment item","yes","FlankerTask.osexp","/Users/emmaleemorgan/Desktop","no","mono","no","18","no","white","no","yes","768","legacy","22","22","/Users/emmaleemorgan/Desktop/EM subject-3, f, 37.csv","legacy","Kafkaesque Koffka","3.2.5","0","s","NA","s","NA","NA","s","476","NA","19877","NA","NA","476","2","legacy","1024","2","48000","-16","experiment","SSSSS","3","odd","23465","NA","NA","NA","NA","NA","62683","61611","3573","NA","NA","62795","63273","62673","62795","3551","Flanker Task","23","13262","23","yes","1024"
"100","100","572.916666667","572.916666667","black","legacy","legacy","legacy","0","Congruent","uniform","1","undefined","1","s","0","0","0","23","23","0","23","23","0","0","0","23","23","23","23","0","Fri Sep  7 13:48:00 2018","1500","The main experiment item","yes","FlankerTask.osexp","/Users/emmaleemorgan/Desktop","no","mono","no","18","no","white","no","yes","768","legacy","23","23","/Users/emmaleemorgan/Desktop/EM subject-3, f, 37.csv","legacy","Kafkaesque Koffka","3.2.5","0","s","NA","s","NA","NA","s","488","NA","19877","NA","NA","488","2","legacy","1024","2","48000","-16","experiment","SSSSS","3","odd","23465","NA","NA","NA","NA","NA","64356","63286","3573","NA","NA","64470","64960","64347","64470","3551","Flanker Task","24","13750","24","yes","1024"
"100","100","568.92","568.92","black","legacy","legacy","legacy","0","Congruent","uniform","1","undefined","1","h","0","0","0","24","24","0","24","24","0","0","0","24","24","24","24","0","Fri Sep  7 13:48:00 2018","1500","The main experiment item","yes","FlankerTask.osexp","/Users/emmaleemorgan/Desktop","no","mono","no","18","no","white","no","yes","768","legacy","24","24","/Users/emmaleemorgan/Desktop/EM subject-3, f, 37.csv","legacy","Kafkaesque Koffka","3.2.5","0","h","NA","s","NA","NA","h","473","NA","19877","NA","NA","473","2","legacy","1024","2","48000","-16","experiment","HHHHH","3","odd","23465","NA","NA","NA","NA","NA","66047","64973","3573","NA","NA","66157","66632","66036","66157","3551","Flanker Task","25","14223","25","yes","1024"
"100","100","564.961538462","564.961538462","black","legacy","legacy","legacy","0","Congruent","uniform","1","undefined","1","h","0","0","0","25","25","0","25","25","0","0","0","25","25","25","25","0","Fri Sep  7 13:48:00 2018","1500","The main experiment item","yes","FlankerTask.osexp","/Users/emmaleemorgan/Desktop","no","mono","no","18","no","white","no","yes","768","legacy","25","25","/Users/emmaleemorgan/Desktop/EM subject-3, f, 37.csv","legacy","Kafkaesque Koffka","3.2.5","0","h","NA","s","NA","NA","h","466","NA","19877","NA","NA","466","2","legacy","1024","2","48000","-16","experiment","HHHHH","3","odd","23465","NA","NA","NA","NA","NA","67717","66646","3573","NA","NA","67827","68294","67706","67827","3551","Flanker Task","26","14689","26","yes","1024"
"100","100","560.037037037","560.037037037","black","legacy","legacy","legacy","0","Congruent","uniform","1","undefined","1","s","0","0","0","26","26","0","26","26","0","0","0","26","26","26","26","0","Fri Sep  7 13:48:00 2018","1500","The main experiment item","yes","FlankerTask.osexp","/Users/emmaleemorgan/Desktop","no","mono","no","18","no","white","no","yes","768","legacy","26","26","/Users/emmaleemorgan/Desktop/EM subject-3, f, 37.csv","legacy","Kafkaesque Koffka","3.2.5","0","s","NA","s","NA","NA","s","432","NA","19877","NA","NA","432","2","legacy","1024","2","48000","-16","experiment","SSSSS","3","odd","23465","NA","NA","NA","NA","NA","69380","68307","3573","NA","NA","69491","69924","69370","69491","3551","Flanker Task","27","15121","27","yes","1024"
"100","100","555.571428571","555.571428571","black","legacy","legacy","legacy","0","Incongruent","uniform","1","undefined","1","s","0","0","0","27","27","0","27","27","0","0","0","27","27","27","27","0","Fri Sep  7 13:48:00 2018","1500","The main experiment item","yes","FlankerTask.osexp","/Users/emmaleemorgan/Desktop","no","mono","no","18","no","white","no","yes","768","legacy","27","27","/Users/emmaleemorgan/Desktop/EM subject-3, f, 37.csv","legacy","Kafkaesque Koffka","3.2.5","0","s","NA","s","NA","NA","s","435","NA","19877","NA","NA","435","2","legacy","1024","2","48000","-16","experiment","HHSHH","3","odd","23465","NA","NA","NA","NA","NA","71006","69936","3573","NA","NA","71118","71555","70997","71118","3551","Flanker Task","28","15556","28","yes","1024"
"100","100","553.344827586","553.344827586","black","legacy","legacy","legacy","0","Congruent","uniform","1","undefined","1","h","0","0","0","28","28","0","28","28","0","0","0","28","28","28","28","0","Fri Sep  7 13:48:00 2018","1500","The main experiment item","yes","FlankerTask.osexp","/Users/emmaleemorgan/Desktop","no","mono","no","18","no","white","no","yes","768","legacy","28","28","/Users/emmaleemorgan/Desktop/EM subject-3, f, 37.csv","legacy","Kafkaesque Koffka","3.2.5","0","h","NA","s","NA","NA","h","491","NA","19877","NA","NA","491","2","legacy","1024","2","48000","-16","experiment","HHHHH","3","odd","23465","NA","NA","NA","NA","NA","72638","71567","3573","NA","NA","72750","73243","72628","72750","3551","Flanker Task","29","16047","29","yes","1024"
"100","100","556.733333333","556.733333333","black","legacy","legacy","legacy","0","Incongruent","uniform","1","undefined","1","h","0","0","0","29","29","0","29","29","0","0","0","29","29","29","29","0","Fri Sep  7 13:48:00 2018","1500","The main experiment item","yes","FlankerTask.osexp","/Users/emmaleemorgan/Desktop","no","mono","no","18","no","white","no","yes","768","legacy","29","29","/Users/emmaleemorgan/Desktop/EM subject-3, f, 37.csv","legacy","Kafkaesque Koffka","3.2.5","0","h","NA","s","NA","NA","h","655","NA","19877","NA","NA","655","2","legacy","1024","2","48000","-16","experiment","SSHSS","3","odd","23465","NA","NA","NA","NA","NA","74328","73256","3573","NA","NA","74440","75097","74318","74440","3551","Flanker Task","30","16702","30","yes","1024"
"100","100","555.419354839","555.419354839","black","legacy","legacy","legacy","0","Congruent","uniform","1","undefined","1","s","0","0","0","30","30","0","30","30","0","0","0","30","30","30","30","0","Fri Sep  7 13:48:00 2018","1500","The main experiment item","yes","FlankerTask.osexp","/Users/emmaleemorgan/Desktop","no","mono","no","18","no","white","no","yes","768","legacy","30","30","/Users/emmaleemorgan/Desktop/EM subject-3, f, 37.csv","legacy","Kafkaesque Koffka","3.2.5","0","s","NA","s","NA","NA","s","516","NA","19877","NA","NA","516","2","legacy","1024","2","48000","-16","experiment","SSSSS","3","odd","23465","NA","NA","NA","NA","NA","76180","75109","3573","NA","NA","76292","76810","76170","76292","3551","Flanker Task","31","17218","31","yes","1024"
"100","100","553.65625","553.65625","black","legacy","legacy","legacy","0","Incongruent","uniform","1","undefined","1","s","0","0","0","31","31","0","31","31","0","0","0","31","31","31","31","0","Fri Sep  7 13:48:00 2018","1500","The main experiment item","yes","FlankerTask.osexp","/Users/emmaleemorgan/Desktop","no","mono","no","18","no","white","no","yes","768","legacy","31","31","/Users/emmaleemorgan/Desktop/EM subject-3, f, 37.csv","legacy","Kafkaesque Koffka","3.2.5","0","s","NA","s","NA","NA","s","499","NA","19877","NA","NA","499","2","legacy","1024","2","48000","-16","experiment","HHSHH","3","odd","23465","NA","NA","NA","NA","NA","77898","76823","3573","NA","NA","78011","78512","77887","78010","3551","Flanker Task","32","17717","32","yes","1024"
"100","100","549.03030303","549.03030303","black","legacy","legacy","legacy","0","Incongruent","uniform","1","undefined","1","h","0","0","0","32","32","0","32","32","0","0","0","32","32","32","32","0","Fri Sep  7 13:48:00 2018","1500","The main experiment item","yes","FlankerTask.osexp","/Users/emmaleemorgan/Desktop","no","mono","no","18","no","white","no","yes","768","legacy","32","32","/Users/emmaleemorgan/Desktop/EM subject-3, f, 37.csv","legacy","Kafkaesque Koffka","3.2.5","0","h","NA","s","NA","NA","h","401","NA","19877","NA","NA","401","2","legacy","1024","2","48000","-16","experiment","SSHSS","3","odd","23465","NA","NA","NA","NA","NA","79601","78525","3573","NA","NA","79710","80113","79590","79710","3551","Flanker Task","33","18118","33","yes","1024"
"100","100","545.823529412","545.823529412","black","legacy","legacy","legacy","0","Congruent","uniform","1","undefined","1","s","0","0","0","33","33","0","33","33","0","0","0","33","33","33","33","0","Fri Sep  7 13:48:00 2018","1500","The main experiment item","yes","FlankerTask.osexp","/Users/emmaleemorgan/Desktop","no","mono","no","18","no","white","no","yes","768","legacy","33","33","/Users/emmaleemorgan/Desktop/EM subject-3, f, 37.csv","legacy","Kafkaesque Koffka","3.2.5","0","s","NA","s","NA","NA","s","440","NA","19877","NA","NA","440","2","legacy","1024","2","48000","-16","experiment","SSSSS","3","odd","23465","NA","NA","NA","NA","NA","81192","80125","3573","NA","NA","81303","81745","81182","81303","3551","Flanker Task","34","18558","34","yes","1024"
"100","100","544.714285714","544.714285714","black","legacy","legacy","legacy","0","Congruent","uniform","1","undefined","1","s","0","0","0","34","34","0","34","34","0","0","0","34","34","34","34","0","Fri Sep  7 13:48:00 2018","1500","The main experiment item","yes","FlankerTask.osexp","/Users/emmaleemorgan/Desktop","no","mono","no","18","no","white","no","yes","768","legacy","34","34","/Users/emmaleemorgan/Desktop/EM subject-3, f, 37.csv","legacy","Kafkaesque Koffka","3.2.5","0","s","NA","s","NA","NA","s","507","NA","19877","NA","NA","507","2","legacy","1024","2","48000","-16","experiment","SSSSS","3","odd","23465","NA","NA","NA","NA","NA","82833","81758","3573","NA","NA","82944","83453","82823","82944","3551","Flanker Task","35","19065","35","yes","1024"
"100","100","542.111111111","542.111111111","black","legacy","legacy","legacy","0","Congruent","uniform","1","undefined","1","s","0","0","0","35","35","0","35","35","0","0","0","35","35","35","35","0","Fri Sep  7 13:48:00 2018","1500","The main experiment item","yes","FlankerTask.osexp","/Users/emmaleemorgan/Desktop","no","mono","no","18","no","white","no","yes","768","legacy","35","35","/Users/emmaleemorgan/Desktop/EM subject-3, f, 37.csv","legacy","Kafkaesque Koffka","3.2.5","0","s","NA","s","NA","NA","s","451","NA","19877","NA","NA","451","2","legacy","1024","2","48000","-16","experiment","SSSSS","3","odd","23465","NA","NA","NA","NA","NA","84536","83466","3573","NA","NA","84649","85101","84527","84648","3551","Flanker Task","36","19516","36","yes","1024"
"100","100","543.405405405","543.405405405","black","legacy","legacy","legacy","0","Incongruent","uniform","1","undefined","1","s","0","0","0","36","36","0","36","36","0","0","0","36","36","36","36","0","Fri Sep  7 13:48:00 2018","1500","The main experiment item","yes","FlankerTask.osexp","/Users/emmaleemorgan/Desktop","no","mono","no","18","no","white","no","yes","768","legacy","36","36","/Users/emmaleemorgan/Desktop/EM subject-3, f, 37.csv","legacy","Kafkaesque Koffka","3.2.5","0","s","NA","s","NA","NA","s","590","NA","19877","NA","NA","590","2","legacy","1024","2","48000","-16","experiment","HHSHH","3","odd","23465","NA","NA","NA","NA","NA","86267","85114","3573","NA","NA","86394","86986","86247","86393","3551","Flanker Task","37","20106","37","yes","1024"
"100","100","540.973684211","540.973684211","black","legacy","legacy","legacy","0","Congruent","uniform","1","undefined","1","h","0","0","0","37","37","0","37","37","0","0","0","37","37","37","37","0","Fri Sep  7 13:48:00 2018","1500","The main experiment item","yes","FlankerTask.osexp","/Users/emmaleemorgan/Desktop","no","mono","no","18","no","white","no","yes","768","legacy","37","37","/Users/emmaleemorgan/Desktop/EM subject-3, f, 37.csv","legacy","Kafkaesque Koffka","3.2.5","0","h","NA","s","NA","NA","h","451","NA","19877","NA","NA","451","2","legacy","1024","2","48000","-16","experiment","HHHHH","3","odd","23465","NA","NA","NA","NA","NA","88065","86998","3573","NA","NA","88178","88631","88054","88177","3551","Flanker Task","38","20557","38","yes","1024"
"100","100","541","541","black","legacy","legacy","legacy","0","Congruent","uniform","1","undefined","1","s","0","0","0","38","38","0","38","38","0","0","0","38","38","38","38","0","Fri Sep  7 13:48:00 2018","1500","The main experiment item","yes","FlankerTask.osexp","/Users/emmaleemorgan/Desktop","no","mono","no","18","no","white","no","yes","768","legacy","38","38","/Users/emmaleemorgan/Desktop/EM subject-3, f, 37.csv","legacy","Kafkaesque Koffka","3.2.5","0","s","NA","s","NA","NA","s","542","NA","19877","NA","NA","542","2","legacy","1024","2","48000","-16","experiment","SSSSS","3","odd","23465","NA","NA","NA","NA","NA","89712","88644","3573","NA","NA","89822","90366","89702","89822","3551","Flanker Task","39","21099","39","yes","1024"
"100","100","539.7","539.7","black","legacy","legacy","legacy","0","Incongruent","uniform","1","undefined","1","s","0","0","0","39","39","0","39","39","0","0","0","39","39","39","39","0","Fri Sep  7 13:48:00 2018","1500","The main experiment item","yes","FlankerTask.osexp","/Users/emmaleemorgan/Desktop","no","mono","no","18","no","white","no","yes","768","legacy","39","39","/Users/emmaleemorgan/Desktop/EM subject-3, f, 37.csv","legacy","Kafkaesque Koffka","3.2.5","0","s","NA","s","NA","NA","s","489","NA","19877","NA","NA","489","2","legacy","1024","2","48000","-16","experiment","HHSHH","3","odd","23465","NA","NA","NA","NA","NA","91452","90378","3573","NA","NA","91563","92053","91442","91563","3551","Flanker Task","40","21588","40","yes","1024"
"100","100","537.56097561","537.56097561","black","legacy","legacy","legacy","0","Incongruent","uniform","1","undefined","1","s","0","0","0","40","40","0","40","40","0","0","0","40","40","40","40","0","Fri Sep  7 13:48:00 2018","1500","The main experiment item","yes","FlankerTask.osexp","/Users/emmaleemorgan/Desktop","no","mono","no","18","no","white","no","yes","768","legacy","40","40","/Users/emmaleemorgan/Desktop/EM subject-3, f, 37.csv","legacy","Kafkaesque Koffka","3.2.5","0","s","NA","s","NA","NA","s","452","NA","19877","NA","NA","452","2","legacy","1024","2","48000","-16","experiment","HHSHH","3","odd","23465","NA","NA","NA","NA","NA","93133","92066","3573","NA","NA","93244","93698","93123","93244","3551","Flanker Task","41","22040","41","yes","1024"
"100","100","534.952380952","534.952380952","black","legacy","legacy","legacy","0","Incongruent","uniform","1","undefined","1","h","0","0","0","41","41","0","41","41","0","0","0","41","41","41","41","0","Fri Sep  7 13:48:00 2018","1500","The main experiment item","yes","FlankerTask.osexp","/Users/emmaleemorgan/Desktop","no","mono","no","18","no","white","no","yes","768","legacy","41","41","/Users/emmaleemorgan/Desktop/EM subject-3, f, 37.csv","legacy","Kafkaesque Koffka","3.2.5","0","h","NA","s","NA","NA","h","428","NA","19877","NA","NA","428","2","legacy","1024","2","48000","-16","experiment","SSHSS","3","odd","23465","NA","NA","NA","NA","NA","94779","93711","3573","NA","NA","94889","95319","94769","94888","3551","Flanker Task","42","22468","42","yes","1024"
"100","100","534.348837209","534.348837209","black","legacy","legacy","legacy","0","Incongruent","uniform","1","undefined","1","s","0","0","0","42","42","0","42","42","0","0","0","42","42","42","42","0","Fri Sep  7 13:48:00 2018","1500","The main experiment item","yes","FlankerTask.osexp","/Users/emmaleemorgan/Desktop","no","mono","no","18","no","white","no","yes","768","legacy","42","42","/Users/emmaleemorgan/Desktop/EM subject-3, f, 37.csv","legacy","Kafkaesque Koffka","3.2.5","0","s","NA","s","NA","NA","s","509","NA","19877","NA","NA","509","2","legacy","1024","2","48000","-16","experiment","HHSHH","3","odd","23465","NA","NA","NA","NA","NA","96402","95334","3573","NA","NA","96512","97022","96391","96512","3551","Flanker Task","43","22977","43","yes","1024"
"100","100","532.681818182","532.681818182","black","legacy","legacy","legacy","0","Incongruent","uniform","1","undefined","1","s","0","0","0","43","43","0","43","43","0","0","0","43","43","43","43","0","Fri Sep  7 13:48:00 2018","1500","The main experiment item","yes","FlankerTask.osexp","/Users/emmaleemorgan/Desktop","no","mono","no","18","no","white","no","yes","768","legacy","43","43","/Users/emmaleemorgan/Desktop/EM subject-3, f, 37.csv","legacy","Kafkaesque Koffka","3.2.5","0","s","NA","s","NA","NA","s","461","NA","19877","NA","NA","461","2","legacy","1024","2","48000","-16","experiment","HHSHH","3","odd","23465","NA","NA","NA","NA","NA","98102","97035","3573","NA","NA","98216","98679","98093","98216","3551","Flanker Task","44","23438","44","yes","1024"
"100","100","531.333333333","531.333333333","black","legacy","legacy","legacy","0","Incongruent","uniform","1","undefined","1","h","0","0","0","44","44","0","44","44","0","0","0","44","44","44","44","0","Fri Sep  7 13:48:00 2018","1500","The main experiment item","yes","FlankerTask.osexp","/Users/emmaleemorgan/Desktop","no","mono","no","18","no","white","no","yes","768","legacy","44","44","/Users/emmaleemorgan/Desktop/EM subject-3, f, 37.csv","legacy","Kafkaesque Koffka","3.2.5","0","h","NA","s","NA","NA","h","472","NA","19877","NA","NA","472","2","legacy","1024","2","48000","-16","experiment","SSHSS","3","odd","23465","NA","NA","NA","NA","NA","99764","98690","3573","NA","NA","99876","100350","99755","99875","3551","Flanker Task","45","23910","45","yes","1024"
"100","100","530.5","530.5","black","legacy","legacy","legacy","0","Incongruent","uniform","1","undefined","1","h","0","0","0","45","45","0","45","45","0","0","0","45","45","45","45","0","Fri Sep  7 13:48:00 2018","1500","The main experiment item","yes","FlankerTask.osexp","/Users/emmaleemorgan/Desktop","no","mono","no","18","no","white","no","yes","768","legacy","45","45","/Users/emmaleemorgan/Desktop/EM subject-3, f, 37.csv","legacy","Kafkaesque Koffka","3.2.5","0","h","NA","s","NA","NA","h","493","NA","19877","NA","NA","493","2","legacy","1024","2","48000","-16","experiment","SSHSS","3","odd","23465","NA","NA","NA","NA","NA","101433","100363","3573","NA","NA","101545","102040","101424","101545","3551","Flanker Task","46","24403","46","yes","1024"
"100","100","527.893617021","527.893617021","black","legacy","legacy","legacy","0","Incongruent","uniform","1","undefined","1","s","0","0","0","46","46","0","46","46","0","0","0","46","46","46","46","0","Fri Sep  7 13:48:00 2018","1500","The main experiment item","yes","FlankerTask.osexp","/Users/emmaleemorgan/Desktop","no","mono","no","18","no","white","no","yes","768","legacy","46","46","/Users/emmaleemorgan/Desktop/EM subject-3, f, 37.csv","legacy","Kafkaesque Koffka","3.2.5","0","s","NA","s","NA","NA","s","408","NA","19877","NA","NA","408","2","legacy","1024","2","48000","-16","experiment","HHSHH","3","odd","23465","NA","NA","NA","NA","NA","103125","102053","3573","NA","NA","103239","103649","103115","103238","3551","Flanker Task","47","24811","47","yes","1024"
"100","100","527.520833333","527.520833333","black","legacy","legacy","legacy","0","Incongruent","uniform","1","undefined","1","h","0","0","0","47","47","0","47","47","0","0","0","47","47","47","47","0","Fri Sep  7 13:48:00 2018","1500","The main experiment item","yes","FlankerTask.osexp","/Users/emmaleemorgan/Desktop","no","mono","no","18","no","white","no","yes","768","legacy","47","47","/Users/emmaleemorgan/Desktop/EM subject-3, f, 37.csv","legacy","Kafkaesque Koffka","3.2.5","0","h","NA","s","NA","NA","h","510","NA","19877","NA","NA","510","2","legacy","1024","2","48000","-16","experiment","SSHSS","3","odd","23465","NA","NA","NA","NA","NA","104739","103663","3573","NA","NA","104852","105364","104729","104851","3551","Flanker Task","48","25321","48","yes","1024"
"100","100","526.571428571","526.571428571","black","legacy","legacy","legacy","0","Congruent","uniform","1","undefined","1","s","0","0","0","48","48","0","48","48","0","0","0","48","48","48","48","0","Fri Sep  7 13:48:00 2018","1500","The main experiment item","yes","FlankerTask.osexp","/Users/emmaleemorgan/Desktop","no","mono","no","18","no","white","no","yes","768","legacy","48","48","/Users/emmaleemorgan/Desktop/EM subject-3, f, 37.csv","legacy","Kafkaesque Koffka","3.2.5","0","s","NA","s","NA","NA","s","481","NA","19877","NA","NA","481","2","legacy","1024","2","48000","-16","experiment","SSSSS","3","odd","23465","NA","NA","NA","NA","NA","106447","105377","3573","NA","NA","106560","107043","106437","106560","3551","Flanker Task","49","25802","49","yes","1024"
"100","100","525.48","525.48","black","legacy","legacy","legacy","0","Congruent","uniform","1","undefined","1","h","0","0","0","49","49","0","49","49","0","0","0","49","49","49","49","0","Fri Sep  7 13:48:00 2018","1500","The main experiment item","yes","FlankerTask.osexp","/Users/emmaleemorgan/Desktop","no","mono","no","18","no","white","no","yes","768","legacy","49","49","/Users/emmaleemorgan/Desktop/EM subject-3, f, 37.csv","legacy","Kafkaesque Koffka","3.2.5","0","h","NA","s","NA","NA","h","472","NA","19877","NA","NA","472","2","legacy","1024","2","48000","-16","experiment","HHHHH","3","odd","23465","NA","NA","NA","NA","NA","108128","107056","3573","NA","NA","108242","108716","108118","108241","3551","Flanker Task","50","26274","50","yes","1024"
"100","100","526.117647059","526.117647059","black","legacy","legacy","legacy","0","Congruent","uniform","1","undefined","1","s","0","0","0","50","50","0","50","50","0","0","0","50","50","50","50","0","Fri Sep  7 13:48:00 2018","1500","The main experiment item","yes","FlankerTask.osexp","/Users/emmaleemorgan/Desktop","no","mono","no","18","no","white","no","yes","768","legacy","50","50","/Users/emmaleemorgan/Desktop/EM subject-3, f, 37.csv","legacy","Kafkaesque Koffka","3.2.5","0","s","NA","s","NA","NA","s","558","NA","19877","NA","NA","558","2","legacy","1024","2","48000","-16","experiment","SSSSS","3","odd","23465","NA","NA","NA","NA","NA","109802","108729","3573","NA","NA","109915","110474","109791","109915","3551","Flanker Task","51","26832","51","yes","1024"
"100","100","526.692307692","526.692307692","black","legacy","legacy","legacy","0","Congruent","uniform","1","undefined","1","h","0","0","0","51","51","0","51","51","0","0","0","51","51","51","51","0","Fri Sep  7 13:48:00 2018","1500","The main experiment item","yes","FlankerTask.osexp","/Users/emmaleemorgan/Desktop","no","mono","no","18","no","white","no","yes","768","legacy","51","51","/Users/emmaleemorgan/Desktop/EM subject-3, f, 37.csv","legacy","Kafkaesque Koffka","3.2.5","0","h","NA","s","NA","NA","h","556","NA","19877","NA","NA","556","2","legacy","1024","2","48000","-16","experiment","HHHHH","3","odd","23465","NA","NA","NA","NA","NA","111557","110487","3573","NA","NA","111666","112223","111547","111666","3551","Flanker Task","52","27388","52","yes","1024"
"100","100","525.283018868","525.283018868","black","legacy","legacy","legacy","0","Congruent","uniform","1","undefined","1","h","0","0","0","52","52","0","52","52","0","0","0","52","52","52","52","0","Fri Sep  7 13:48:00 2018","1500","The main experiment item","yes","FlankerTask.osexp","/Users/emmaleemorgan/Desktop","no","mono","no","18","no","white","no","yes","768","legacy","52","52","/Users/emmaleemorgan/Desktop/EM subject-3, f, 37.csv","legacy","Kafkaesque Koffka","3.2.5","0","h","NA","s","NA","NA","h","452","NA","19877","NA","NA","452","2","legacy","1024","2","48000","-16","experiment","HHHHH","3","odd","23465","NA","NA","NA","NA","NA","113306","112236","3573","NA","NA","113416","113869","113296","113416","3551","Flanker Task","53","27840","53","yes","1024"
"100","100","525.296296296","525.296296296","black","legacy","legacy","legacy","0","Incongruent","uniform","1","undefined","1","s","0","0","0","53","53","0","53","53","0","0","0","53","53","53","53","0","Fri Sep  7 13:48:00 2018","1500","The main experiment item","yes","FlankerTask.osexp","/Users/emmaleemorgan/Desktop","no","mono","no","18","no","white","no","yes","768","legacy","53","53","/Users/emmaleemorgan/Desktop/EM subject-3, f, 37.csv","legacy","Kafkaesque Koffka","3.2.5","0","s","NA","s","NA","NA","s","526","NA","19877","NA","NA","526","2","legacy","1024","2","48000","-16","experiment","HHSHH","3","odd","23465","NA","NA","NA","NA","NA","114956","113882","3573","NA","NA","115069","115598","114946","115069","3551","Flanker Task","54","28366","54","yes","1024"
"100","100","526.6","526.6","black","legacy","legacy","legacy","0","Incongruent","uniform","1","undefined","1","h","0","0","0","54","54","0","54","54","0","0","0","54","54","54","54","0","Fri Sep  7 13:48:00 2018","1500","The main experiment item","yes","FlankerTask.osexp","/Users/emmaleemorgan/Desktop","no","mono","no","18","no","white","no","yes","768","legacy","54","54","/Users/emmaleemorgan/Desktop/EM subject-3, f, 37.csv","legacy","Kafkaesque Koffka","3.2.5","0","h","NA","s","NA","NA","h","597","NA","19877","NA","NA","597","2","legacy","1024","2","48000","-16","experiment","SSHSS","3","odd","23465","NA","NA","NA","NA","NA","116681","115610","3573","NA","NA","116793","117392","116672","116793","3551","Flanker Task","55","28963","55","yes","1024"
"100","100","525.625","525.625","black","legacy","legacy","legacy","0","Incongruent","uniform","1","undefined","1","h","0","0","0","55","55","0","55","55","0","0","0","55","55","55","55","0","Fri Sep  7 13:48:00 2018","1500","The main experiment item","yes","FlankerTask.osexp","/Users/emmaleemorgan/Desktop","no","mono","no","18","no","white","no","yes","768","legacy","55","55","/Users/emmaleemorgan/Desktop/EM subject-3, f, 37.csv","legacy","Kafkaesque Koffka","3.2.5","0","h","NA","s","NA","NA","h","472","NA","19877","NA","NA","472","2","legacy","1024","2","48000","-16","experiment","SSHSS","3","odd","23465","NA","NA","NA","NA","NA","118474","117405","3573","NA","NA","118587","119061","118463","118587","3551","Flanker Task","56","29435","56","yes","1024"
"100","100","525.01754386","525.01754386","black","legacy","legacy","legacy","0","Incongruent","uniform","1","undefined","1","s","0","0","0","56","56","0","56","56","0","0","0","56","56","56","56","0","Fri Sep  7 13:48:00 2018","1500","The main experiment item","yes","FlankerTask.osexp","/Users/emmaleemorgan/Desktop","no","mono","no","18","no","white","no","yes","768","legacy","56","56","/Users/emmaleemorgan/Desktop/EM subject-3, f, 37.csv","legacy","Kafkaesque Koffka","3.2.5","0","s","NA","s","NA","NA","s","491","NA","19877","NA","NA","491","2","legacy","1024","2","48000","-16","experiment","HHSHH","3","odd","23465","NA","NA","NA","NA","NA","120159","119074","3573","NA","NA","120269","120762","120149","120269","3551","Flanker Task","57","29926","57","yes","1024"
"100","100","523.603448276","523.603448276","black","legacy","legacy","legacy","0","Incongruent","uniform","1","undefined","1","h","0","0","0","57","57","0","57","57","0","0","0","57","57","57","57","0","Fri Sep  7 13:48:00 2018","1500","The main experiment item","yes","FlankerTask.osexp","/Users/emmaleemorgan/Desktop","no","mono","no","18","no","white","no","yes","768","legacy","57","57","/Users/emmaleemorgan/Desktop/EM subject-3, f, 37.csv","legacy","Kafkaesque Koffka","3.2.5","0","h","NA","s","NA","NA","h","443","NA","19877","NA","NA","443","2","legacy","1024","2","48000","-16","experiment","SSHSS","3","odd","23465","NA","NA","NA","NA","NA","121846","120774","3573","NA","NA","121958","122403","121836","121958","3551","Flanker Task","58","30369","58","yes","1024"
"100","100","523.186440678","523.186440678","black","legacy","legacy","legacy","0","Congruent","uniform","1","undefined","1","s","0","0","0","58","58","0","58","58","0","0","0","58","58","58","58","0","Fri Sep  7 13:48:00 2018","1500","The main experiment item","yes","FlankerTask.osexp","/Users/emmaleemorgan/Desktop","no","mono","no","18","no","white","no","yes","768","legacy","58","58","/Users/emmaleemorgan/Desktop/EM subject-3, f, 37.csv","legacy","Kafkaesque Koffka","3.2.5","0","s","NA","s","NA","NA","s","499","NA","19877","NA","NA","499","2","legacy","1024","2","48000","-16","experiment","SSSSS","3","odd","23465","NA","NA","NA","NA","NA","123487","122416","3573","NA","NA","123600","124100","123477","123599","3551","Flanker Task","59","30868","59","yes","1024"
"100","100","522.15","522.15","black","legacy","legacy","legacy","0","Incongruent","uniform","1","undefined","1","h","0","0","0","59","59","0","59","59","0","0","0","59","59","59","59","0","Fri Sep  7 13:48:00 2018","1500","The main experiment item","yes","FlankerTask.osexp","/Users/emmaleemorgan/Desktop","no","mono","no","18","no","white","no","yes","768","legacy","59","59","/Users/emmaleemorgan/Desktop/EM subject-3, f, 37.csv","legacy","Kafkaesque Koffka","3.2.5","0","h","NA","s","NA","NA","h","461","NA","19877","NA","NA","461","2","legacy","1024","2","48000","-16","experiment","SSHSS","3","odd","23465","NA","NA","NA","NA","NA","125187","124113","3573","NA","NA","125299","125762","125177","125299","3551","Flanker Task","60","31329","60","yes","1024"
"100","100","522.06557377","522.06557377","black","legacy","legacy","legacy","0","Incongruent","uniform","1","undefined","1","s","0","0","0","60","60","0","60","60","0","0","0","60","60","60","60","0","Fri Sep  7 13:48:00 2018","1500","The main experiment item","yes","FlankerTask.osexp","/Users/emmaleemorgan/Desktop","no","mono","no","18","no","white","no","yes","768","legacy","60","60","/Users/emmaleemorgan/Desktop/EM subject-3, f, 37.csv","legacy","Kafkaesque Koffka","3.2.5","0","s","NA","s","NA","NA","s","517","NA","19877","NA","NA","517","2","legacy","1024","2","48000","-16","experiment","HHSHH","3","odd","23465","NA","NA","NA","NA","NA","126845","125775","3573","NA","NA","126959","127477","126836","126959","3551","Flanker Task","61","31846","61","yes","1024"
"100","100","520.838709677","520.838709677","black","legacy","legacy","legacy","0","Incongruent","uniform","1","undefined","1","s","0","0","0","61","61","0","61","61","0","0","0","61","61","61","61","0","Fri Sep  7 13:48:00 2018","1500","The main experiment item","yes","FlankerTask.osexp","/Users/emmaleemorgan/Desktop","no","mono","no","18","no","white","no","yes","768","legacy","61","61","/Users/emmaleemorgan/Desktop/EM subject-3, f, 37.csv","legacy","Kafkaesque Koffka","3.2.5","0","s","NA","s","NA","NA","s","446","NA","19877","NA","NA","446","2","legacy","1024","2","48000","-16","experiment","HHSHH","3","odd","23465","NA","NA","NA","NA","NA","128563","127490","3573","NA","NA","128675","129122","128552","128675","3551","Flanker Task","62","32292","62","yes","1024"
"100","100","519.301587302","519.301587302","black","legacy","legacy","legacy","0","Incongruent","uniform","1","undefined","1","h","0","0","0","62","62","0","62","62","0","0","0","62","62","62","62","0","Fri Sep  7 13:48:00 2018","1500","The main experiment item","yes","FlankerTask.osexp","/Users/emmaleemorgan/Desktop","no","mono","no","18","no","white","no","yes","768","legacy","62","62","/Users/emmaleemorgan/Desktop/EM subject-3, f, 37.csv","legacy","Kafkaesque Koffka","3.2.5","0","h","NA","s","NA","NA","h","424","NA","19877","NA","NA","424","2","legacy","1024","2","48000","-16","experiment","SSHSS","3","odd","23465","NA","NA","NA","NA","NA","130204","129134","3573","NA","NA","130314","130740","130194","130314","3551","Flanker Task","63","32716","63","yes","1024"
"100","100","519.046875","519.046875","black","legacy","legacy","legacy","0","Incongruent","uniform","1","undefined","1","h","0","0","0","63","63","0","63","63","0","0","0","63","63","63","63","0","Fri Sep  7 13:48:00 2018","1500","The main experiment item","yes","FlankerTask.osexp","/Users/emmaleemorgan/Desktop","no","mono","no","18","no","white","no","yes","768","legacy","63","63","/Users/emmaleemorgan/Desktop/EM subject-3, f, 37.csv","legacy","Kafkaesque Koffka","3.2.5","0","h","NA","s","NA","NA","h","503","NA","19877","NA","NA","503","2","legacy","1024","2","48000","-16","experiment","SSHSS","3","odd","23465","NA","NA","NA","NA","NA","131824","130753","3573","NA","NA","131936","132441","131814","131936","3551","Flanker Task","64","33219","64","yes","1024"
"100","100","517.415384615","517.415384615","black","legacy","legacy","legacy","0","Incongruent","uniform","1","undefined","1","h","0","0","0","64","64","0","64","64","0","0","0","64","64","64","64","0","Fri Sep  7 13:48:00 2018","1500","The main experiment item","yes","FlankerTask.osexp","/Users/emmaleemorgan/Desktop","no","mono","no","18","no","white","no","yes","768","legacy","64","64","/Users/emmaleemorgan/Desktop/EM subject-3, f, 37.csv","legacy","Kafkaesque Koffka","3.2.5","0","h","NA","s","NA","NA","h","413","NA","19877","NA","NA","413","2","legacy","1024","2","48000","-16","experiment","SSHSS","3","odd","23465","NA","NA","NA","NA","NA","133520","132453","3573","NA","NA","133634","134048","133511","133634","3551","Flanker Task","65","33632","65","yes","1024"
"100","100","515.863636364","515.863636364","black","legacy","legacy","legacy","0","Incongruent","uniform","1","undefined","1","s","0","0","0","65","65","0","65","65","0","0","0","65","65","65","65","0","Fri Sep  7 13:48:00 2018","1500","The main experiment item","yes","FlankerTask.osexp","/Users/emmaleemorgan/Desktop","no","mono","no","18","no","white","no","yes","768","legacy","65","65","/Users/emmaleemorgan/Desktop/EM subject-3, f, 37.csv","legacy","Kafkaesque Koffka","3.2.5","0","s","NA","s","NA","NA","s","415","NA","19877","NA","NA","415","2","legacy","1024","2","48000","-16","experiment","HHSHH","3","odd","23465","NA","NA","NA","NA","NA","135129","134061","3573","NA","NA","135242","135658","135119","135242","3551","Flanker Task","66","34047","66","yes","1024"
"100","100","515.089552239","515.089552239","black","legacy","legacy","legacy","0","Congruent","uniform","1","undefined","1","h","0","0","0","66","66","0","66","66","0","0","0","66","66","66","66","0","Fri Sep  7 13:48:00 2018","1500","The main experiment item","yes","FlankerTask.osexp","/Users/emmaleemorgan/Desktop","no","mono","no","18","no","white","no","yes","768","legacy","66","66","/Users/emmaleemorgan/Desktop/EM subject-3, f, 37.csv","legacy","Kafkaesque Koffka","3.2.5","0","h","NA","s","NA","NA","h","464","NA","19877","NA","NA","464","2","legacy","1024","2","48000","-16","experiment","HHHHH","3","odd","23465","NA","NA","NA","NA","NA","136739","135671","3573","NA","NA","136851","137316","136729","136851","3551","Flanker Task","67","34511","67","yes","1024"
"100","100","514.220588235","514.220588235","black","legacy","legacy","legacy","0","Congruent","uniform","1","undefined","1","h","0","0","0","67","67","0","67","67","0","0","0","67","67","67","67","0","Fri Sep  7 13:48:00 2018","1500","The main experiment item","yes","FlankerTask.osexp","/Users/emmaleemorgan/Desktop","no","mono","no","18","no","white","no","yes","768","legacy","67","67","/Users/emmaleemorgan/Desktop/EM subject-3, f, 37.csv","legacy","Kafkaesque Koffka","3.2.5","0","h","NA","s","NA","NA","h","456","NA","19877","NA","NA","456","2","legacy","1024","2","48000","-16","experiment","HHHHH","3","odd","23465","NA","NA","NA","NA","NA","138398","137329","3573","NA","NA","138511","138968","138388","138511","3551","Flanker Task","68","34967","68","yes","1024"
"100","100","514.057971014","514.057971014","black","legacy","legacy","legacy","0","Incongruent","uniform","1","undefined","1","h","0","0","0","68","68","0","68","68","0","0","0","68","68","68","68","0","Fri Sep  7 13:48:00 2018","1500","The main experiment item","yes","FlankerTask.osexp","/Users/emmaleemorgan/Desktop","no","mono","no","18","no","white","no","yes","768","legacy","68","68","/Users/emmaleemorgan/Desktop/EM subject-3, f, 37.csv","legacy","Kafkaesque Koffka","3.2.5","0","h","NA","s","NA","NA","h","503","NA","19877","NA","NA","503","2","legacy","1024","2","48000","-16","experiment","SSHSS","3","odd","23465","NA","NA","NA","NA","NA","140051","138981","3573","NA","NA","140162","140666","140040","140162","3551","Flanker Task","69","35470","69","yes","1024"
"100","100","512.257142857","512.257142857","black","legacy","legacy","legacy","0","Congruent","uniform","1","undefined","1","h","0","0","0","69","69","0","69","69","0","0","0","69","69","69","69","0","Fri Sep  7 13:48:00 2018","1500","The main experiment item","yes","FlankerTask.osexp","/Users/emmaleemorgan/Desktop","no","mono","no","18","no","white","no","yes","768","legacy","69","69","/Users/emmaleemorgan/Desktop/EM subject-3, f, 37.csv","legacy","Kafkaesque Koffka","3.2.5","0","h","NA","s","NA","NA","h","388","NA","19877","NA","NA","388","2","legacy","1024","2","48000","-16","experiment","HHHHH","3","odd","23465","NA","NA","NA","NA","NA","141748","140679","3573","NA","NA","141858","142247","141739","141858","3551","Flanker Task","70","35858","70","yes","1024"
"100","100","510.366197183","510.366197183","black","legacy","legacy","legacy","0","Congruent","uniform","1","undefined","1","h","0","0","0","70","70","0","70","70","0","0","0","70","70","70","70","0","Fri Sep  7 13:48:00 2018","1500","The main experiment item","yes","FlankerTask.osexp","/Users/emmaleemorgan/Desktop","no","mono","no","18","no","white","no","yes","768","legacy","70","70","/Users/emmaleemorgan/Desktop/EM subject-3, f, 37.csv","legacy","Kafkaesque Koffka","3.2.5","0","h","NA","s","NA","NA","h","378","NA","19877","NA","NA","378","2","legacy","1024","2","48000","-16","experiment","HHHHH","3","odd","23465","NA","NA","NA","NA","NA","143327","142260","3573","NA","NA","143439","143818","143317","143439","3551","Flanker Task","71","36236","71","yes","1024"
"100","100","508.611111111","508.611111111","black","legacy","legacy","legacy","0","Congruent","uniform","1","undefined","1","h","0","0","0","71","71","0","71","71","0","0","0","71","71","71","71","0","Fri Sep  7 13:48:00 2018","1500","The main experiment item","yes","FlankerTask.osexp","/Users/emmaleemorgan/Desktop","no","mono","no","18","no","white","no","yes","768","legacy","71","71","/Users/emmaleemorgan/Desktop/EM subject-3, f, 37.csv","legacy","Kafkaesque Koffka","3.2.5","0","h","NA","s","NA","NA","h","384","NA","19877","NA","NA","384","2","legacy","1024","2","48000","-16","experiment","HHHHH","3","odd","23465","NA","NA","NA","NA","NA","144900","143831","3573","NA","NA","145011","145396","144890","145011","3551","Flanker Task","72","36620","72","yes","1024"
"100","100","508.808219178","508.808219178","black","legacy","legacy","legacy","0","Incongruent","uniform","1","undefined","1","s","0","0","0","72","72","0","72","72","0","0","0","72","72","72","72","0","Fri Sep  7 13:48:00 2018","1500","The main experiment item","yes","FlankerTask.osexp","/Users/emmaleemorgan/Desktop","no","mono","no","18","no","white","no","yes","768","legacy","72","72","/Users/emmaleemorgan/Desktop/EM subject-3, f, 37.csv","legacy","Kafkaesque Koffka","3.2.5","0","s","NA","s","NA","NA","s","523","NA","19877","NA","NA","523","2","legacy","1024","2","48000","-16","experiment","HHSHH","3","odd","23465","NA","NA","NA","NA","NA","146476","145409","3573","NA","NA","146591","147116","146466","146591","3551","Flanker Task","73","37143","73","yes","1024"
"100","100","508.743243243","508.743243243","black","legacy","legacy","legacy","0","Congruent","uniform","1","undefined","1","s","0","0","0","73","73","0","73","73","0","0","0","73","73","73","73","0","Fri Sep  7 13:48:00 2018","1500","The main experiment item","yes","FlankerTask.osexp","/Users/emmaleemorgan/Desktop","no","mono","no","18","no","white","no","yes","768","legacy","73","73","/Users/emmaleemorgan/Desktop/EM subject-3, f, 37.csv","legacy","Kafkaesque Koffka","3.2.5","0","s","NA","s","NA","NA","s","504","NA","19877","NA","NA","504","2","legacy","1024","2","48000","-16","experiment","SSSSS","3","odd","23465","NA","NA","NA","NA","NA","148196","147129","3573","NA","NA","148306","148811","148186","148306","3551","Flanker Task","74","37647","74","yes","1024"
"100","100","508.533333333","508.533333333","black","legacy","legacy","legacy","0","Incongruent","uniform","1","undefined","1","s","0","0","0","74","74","0","74","74","0","0","0","74","74","74","74","0","Fri Sep  7 13:48:00 2018","1500","The main experiment item","yes","FlankerTask.osexp","/Users/emmaleemorgan/Desktop","no","mono","no","18","no","white","no","yes","768","legacy","74","74","/Users/emmaleemorgan/Desktop/EM subject-3, f, 37.csv","legacy","Kafkaesque Koffka","3.2.5","0","s","NA","s","NA","NA","s","493","NA","19877","NA","NA","493","2","legacy","1024","2","48000","-16","experiment","HHSHH","3","odd","23465","NA","NA","NA","NA","NA","149892","148824","3573","NA","NA","150001","150495","149882","150001","3551","Flanker Task","75","38140","75","yes","1024"
"100","100","508.684210526","508.684210526","black","legacy","legacy","legacy","0","Congruent","uniform","1","undefined","1","s","0","0","0","75","75","0","75","75","0","0","0","75","75","75","75","0","Fri Sep  7 13:48:00 2018","1500","The main experiment item","yes","FlankerTask.osexp","/Users/emmaleemorgan/Desktop","no","mono","no","18","no","white","no","yes","768","legacy","75","75","/Users/emmaleemorgan/Desktop/EM subject-3, f, 37.csv","legacy","Kafkaesque Koffka","3.2.5","0","s","NA","s","NA","NA","s","520","NA","19877","NA","NA","520","2","legacy","1024","2","48000","-16","experiment","SSSSS","3","odd","23465","NA","NA","NA","NA","NA","151576","150508","3573","NA","NA","151688","152209","151566","151688","3551","Flanker Task","76","38660","76","yes","1024"
"100","100","508.805194805","508.805194805","black","legacy","legacy","legacy","0","Incongruent","uniform","1","undefined","1","h","0","0","0","76","76","0","76","76","0","0","0","76","76","76","76","0","Fri Sep  7 13:48:00 2018","1500","The main experiment item","yes","FlankerTask.osexp","/Users/emmaleemorgan/Desktop","no","mono","no","18","no","white","no","yes","768","legacy","76","76","/Users/emmaleemorgan/Desktop/EM subject-3, f, 37.csv","legacy","Kafkaesque Koffka","3.2.5","0","h","NA","s","NA","NA","h","518","NA","19877","NA","NA","518","2","legacy","1024","2","48000","-16","experiment","SSHSS","3","odd","23465","NA","NA","NA","NA","NA","153292","152222","3573","NA","NA","153402","153921","153281","153402","3551","Flanker Task","77","39178","77","yes","1024"
"100","100","509.666666667","509.666666667","black","legacy","legacy","legacy","0","Incongruent","uniform","1","undefined","1","s","0","0","0","77","77","0","77","77","0","0","0","77","77","77","77","0","Fri Sep  7 13:48:00 2018","1500","The main experiment item","yes","FlankerTask.osexp","/Users/emmaleemorgan/Desktop","no","mono","no","18","no","white","no","yes","768","legacy","77","77","/Users/emmaleemorgan/Desktop/EM subject-3, f, 37.csv","legacy","Kafkaesque Koffka","3.2.5","0","s","NA","s","NA","NA","s","576","NA","19877","NA","NA","576","2","legacy","1024","2","48000","-16","experiment","HHSHH","3","odd","23465","NA","NA","NA","NA","NA","155002","153934","3573","NA","NA","155113","155690","154992","155113","3551","Flanker Task","78","39754","78","yes","1024"
"100","100","509.949367089","509.949367089","black","legacy","legacy","legacy","0","Congruent","uniform","1","undefined","1","h","0","0","0","78","78","0","78","78","0","0","0","78","78","78","78","0","Fri Sep  7 13:48:00 2018","1500","The main experiment item","yes","FlankerTask.osexp","/Users/emmaleemorgan/Desktop","no","mono","no","18","no","white","no","yes","768","legacy","78","78","/Users/emmaleemorgan/Desktop/EM subject-3, f, 37.csv","legacy","Kafkaesque Koffka","3.2.5","0","h","NA","s","NA","NA","h","532","NA","19877","NA","NA","532","2","legacy","1024","2","48000","-16","experiment","HHHHH","3","odd","23465","NA","NA","NA","NA","NA","156771","155701","3573","NA","NA","156882","157416","156761","156882","3551","Flanker Task","79","40286","79","yes","1024"
"100","100","509.9375","509.9375","black","legacy","legacy","legacy","0","Congruent","uniform","1","undefined","1","s","0","0","0","79","79","0","79","79","0","0","0","79","79","79","79","0","Fri Sep  7 13:48:00 2018","1500","The main experiment item","yes","FlankerTask.osexp","/Users/emmaleemorgan/Desktop","no","mono","no","18","no","white","no","yes","768","legacy","79","79","/Users/emmaleemorgan/Desktop/EM subject-3, f, 37.csv","legacy","Kafkaesque Koffka","3.2.5","0","s","NA","s","NA","NA","s","509","NA","19877","NA","NA","509","2","legacy","1024","2","48000","-16","experiment","SSSSS","3","odd","23465","NA","NA","NA","NA","NA","158496","157429","3573","NA","NA","158610","159120","158486","158609","3551","Flanker Task","80","40795","80","yes","1024"
"100","100","512.185185185","512.185185185","black","legacy","legacy","legacy","0","Incongruent","uniform","1","undefined","1","h","0","0","0","80","80","0","80","80","0","0","0","80","80","80","80","0","Fri Sep  7 13:48:00 2018","600","The main experiment item","yes","FlankerTask.osexp","/Users/emmaleemorgan/Desktop","no","mono","no","18","no","white","no","yes","768","legacy","0","79","/Users/emmaleemorgan/Desktop/EM subject-3, f, 37.csv","legacy","Kafkaesque Koffka","3.2.5","0","h","NA","s","h","NA","h","692","NA","19877","11642","NA","692","2","legacy","1024","2","48000","-16","experiment","SSHSS","3","odd","23465","171801","NA","NA","NA","NA","171862","159133","3573","160158","NA","171974","172667","171852","171974","3551","Flanker Task","81","41487","81","yes","1024"
"100","100","511.597560976","511.597560976","black","legacy","legacy","legacy","0","Congruent","uniform","1","undefined","1","h","0","0","0","81","81","0","81","81","0","0","0","81","81","81","81","0","Fri Sep  7 13:48:00 2018","600","The main experiment item","yes","FlankerTask.osexp","/Users/emmaleemorgan/Desktop","no","mono","no","18","no","white","no","yes","768","legacy","1","79","/Users/emmaleemorgan/Desktop/EM subject-3, f, 37.csv","legacy","Kafkaesque Koffka","3.2.5","0","h","NA","s","h","NA","h","464","NA","19877","11642","NA","464","2","legacy","1024","2","48000","-16","experiment","HHHHH","3","odd","23465","171801","NA","NA","172681","NA","174265","173192","3573","160158","NA","174376","174841","174255","174376","3551","Flanker Task","82","41951","82","yes","1024"
"100","100","510.144578313","510.144578313","black","legacy","legacy","legacy","0","Congruent","uniform","1","undefined","1","h","0","0","0","82","82","0","82","82","0","0","0","82","82","82","82","0","Fri Sep  7 13:48:00 2018","600","The main experiment item","yes","FlankerTask.osexp","/Users/emmaleemorgan/Desktop","no","mono","no","18","no","white","no","yes","768","legacy","2","79","/Users/emmaleemorgan/Desktop/EM subject-3, f, 37.csv","legacy","Kafkaesque Koffka","3.2.5","0","h","NA","s","h","NA","h","391","NA","19877","11642","NA","391","2","legacy","1024","2","48000","-16","experiment","HHHHH","3","odd","23465","171801","NA","NA","172681","NA","175925","174854","3573","160158","NA","176038","176430","175915","176038","3551","Flanker Task","83","42342","83","yes","1024"
"100","100","510.178571429","510.178571429","black","legacy","legacy","legacy","0","Incongruent","uniform","1","undefined","1","s","0","0","0","83","83","0","83","83","0","0","0","83","83","83","83","0","Fri Sep  7 13:48:00 2018","600","The main experiment item","yes","FlankerTask.osexp","/Users/emmaleemorgan/Desktop","no","mono","no","18","no","white","no","yes","768","legacy","3","79","/Users/emmaleemorgan/Desktop/EM subject-3, f, 37.csv","legacy","Kafkaesque Koffka","3.2.5","0","s","NA","s","h","NA","s","513","NA","19877","11642","NA","513","2","legacy","1024","2","48000","-16","experiment","HHSHH","3","odd","23465","171801","NA","NA","172681","NA","177514","176443","3573","160158","NA","177626","178140","177504","177626","3551","Flanker Task","84","42855","84","yes","1024"
"100","100","508","508","black","legacy","legacy","legacy","0","Incongruent","uniform","1","undefined","1","h","0","0","0","84","84","0","84","84","0","0","0","84","84","84","84","0","Fri Sep  7 13:48:00 2018","600","The main experiment item","yes","FlankerTask.osexp","/Users/emmaleemorgan/Desktop","no","mono","no","18","no","white","no","yes","768","legacy","4","79","/Users/emmaleemorgan/Desktop/EM subject-3, f, 37.csv","legacy","Kafkaesque Koffka","3.2.5","0","h","NA","s","h","NA","h","325","NA","19877","11642","NA","325","2","legacy","1024","2","48000","-16","experiment","SSHSS","3","odd","23465","171801","NA","NA","172681","NA","179225","178154","3573","160158","NA","179337","179663","179215","179337","3551","Flanker Task","85","43180","85","yes","1024"
"100","100","506.046511628","506.046511628","black","legacy","legacy","legacy","0","Incongruent","uniform","1","undefined","1","h","0","0","0","85","85","0","85","85","0","0","0","85","85","85","85","0","Fri Sep  7 13:48:00 2018","600","The main experiment item","yes","FlankerTask.osexp","/Users/emmaleemorgan/Desktop","no","mono","no","18","no","white","no","yes","768","legacy","5","79","/Users/emmaleemorgan/Desktop/EM subject-3, f, 37.csv","legacy","Kafkaesque Koffka","3.2.5","0","h","NA","s","h","NA","h","340","NA","19877","11642","NA","340","2","legacy","1024","2","48000","-16","experiment","SSHSS","3","odd","23465","171801","NA","NA","172681","NA","180745","179676","3573","160158","NA","180857","181198","180735","180857","3551","Flanker Task","86","43520","86","yes","1024"
"100","100","503.954022989","503.954022989","black","legacy","legacy","legacy","0","Congruent","uniform","1","undefined","1","h","0","0","0","86","86","0","86","86","0","0","0","86","86","86","86","0","Fri Sep  7 13:48:00 2018","600","The main experiment item","yes","FlankerTask.osexp","/Users/emmaleemorgan/Desktop","no","mono","no","18","no","white","no","yes","768","legacy","6","79","/Users/emmaleemorgan/Desktop/EM subject-3, f, 37.csv","legacy","Kafkaesque Koffka","3.2.5","0","h","NA","s","h","NA","h","324","NA","19877","11642","NA","324","2","legacy","1024","2","48000","-16","experiment","HHHHH","3","odd","23465","171801","NA","NA","172681","NA","182281","181211","3573","160158","NA","182393","182718","182271","182393","3551","Flanker Task","87","43844","87","yes","1024"
"98.8636363636","98.8636363636","502.670454545","502.670454545","black","legacy","legacy","legacy","0","Incongruent","uniform","0","undefined","0","s","0","0","0","87","87","0","87","87","0","0","0","87","87","87","87","0","Fri Sep  7 13:48:00 2018","600","The main experiment item","yes","FlankerTask.osexp","/Users/emmaleemorgan/Desktop","no","mono","no","18","no","white","no","yes","768","legacy","7","79","/Users/emmaleemorgan/Desktop/EM subject-3, f, 37.csv","legacy","Kafkaesque Koffka","3.2.5","0","h","NA","s","h","NA","h","391","NA","19877","11642","NA","391","2","legacy","1024","2","48000","-16","experiment","HHSHH","3","odd","23465","171801","NA","NA","172681","NA","183800","182730","3573","160158","NA","183913","184305","183790","183913","3551","Flanker Task","87","44235","88","yes","1024"
"98.8764044944","98.8764044944","502.775280899","502.775280899","black","legacy","legacy","legacy","0","Congruent","uniform","1","undefined","1","s","0","0","0","88","88","0","88","88","0","0","0","88","88","88","88","0","Fri Sep  7 13:48:00 2018","600","The main experiment item","yes","FlankerTask.osexp","/Users/emmaleemorgan/Desktop","no","mono","no","18","no","white","no","yes","768","legacy","8","79","/Users/emmaleemorgan/Desktop/EM subject-3, f, 37.csv","legacy","Kafkaesque Koffka","3.2.5","0","s","NA","s","h","NA","s","512","NA","19877","11642","NA","512","2","legacy","1024","2","48000","-16","experiment","SSSSS","3","odd","23465","171801","NA","184318","172681","NA","185900","184830","3573","160158","NA","186009","186522","185890","186009","3551","Flanker Task","88","44747","89","yes","1024"
"98.8888888889","98.8888888889","501.911111111","501.911111111","black","legacy","legacy","legacy","0","Congruent","uniform","1","undefined","1","s","0","0","0","89","89","0","89","89","0","0","0","89","89","89","89","0","Fri Sep  7 13:48:00 2018","600","The main experiment item","yes","FlankerTask.osexp","/Users/emmaleemorgan/Desktop","no","mono","no","18","no","white","no","yes","768","legacy","9","79","/Users/emmaleemorgan/Desktop/EM subject-3, f, 37.csv","legacy","Kafkaesque Koffka","3.2.5","0","s","NA","s","h","NA","s","425","NA","19877","11642","NA","425","2","legacy","1024","2","48000","-16","experiment","SSSSS","3","odd","23465","171801","NA","184318","172681","NA","187610","186535","3573","160158","NA","187722","188148","187600","187722","3551","Flanker Task","89","45172","90","yes","1024"
"98.9010989011","98.9010989011","501.417582418","501.417582418","black","legacy","legacy","legacy","0","Congruent","uniform","1","undefined","1","s","0","0","0","90","90","0","90","90","0","0","0","90","90","90","90","0","Fri Sep  7 13:48:00 2018","600","The main experiment item","yes","FlankerTask.osexp","/Users/emmaleemorgan/Desktop","no","mono","no","18","no","white","no","yes","768","legacy","10","79","/Users/emmaleemorgan/Desktop/EM subject-3, f, 37.csv","legacy","Kafkaesque Koffka","3.2.5","0","s","NA","s","h","NA","s","457","NA","19877","11642","NA","457","2","legacy","1024","2","48000","-16","experiment","SSSSS","3","odd","23465","171801","NA","184318","172681","NA","189230","188159","3573","160158","NA","189342","189800","189220","189342","3551","Flanker Task","90","45629","91","yes","1024"
"98.9130434783","98.9130434783","500.793478261","500.793478261","black","legacy","legacy","legacy","0","Incongruent","uniform","1","undefined","1","s","0","0","0","91","91","0","91","91","0","0","0","91","91","91","91","0","Fri Sep  7 13:48:00 2018","600","The main experiment item","yes","FlankerTask.osexp","/Users/emmaleemorgan/Desktop","no","mono","no","18","no","white","no","yes","768","legacy","11","79","/Users/emmaleemorgan/Desktop/EM subject-3, f, 37.csv","legacy","Kafkaesque Koffka","3.2.5","0","s","NA","s","h","NA","s","444","NA","19877","11642","NA","444","2","legacy","1024","2","48000","-16","experiment","HHSHH","3","odd","23465","171801","NA","184318","172681","NA","190884","189813","3573","160158","NA","190997","191442","190874","190997","3551","Flanker Task","91","46073","92","yes","1024"
"98.9247311828","98.9247311828","500.559139785","500.559139785","black","legacy","legacy","legacy","0","Incongruent","uniform","1","undefined","1","s","0","0","0","92","92","0","92","92","0","0","0","92","92","92","92","0","Fri Sep  7 13:48:00 2018","600","The main experiment item","yes","FlankerTask.osexp","/Users/emmaleemorgan/Desktop","no","mono","no","18","no","white","no","yes","768","legacy","12","79","/Users/emmaleemorgan/Desktop/EM subject-3, f, 37.csv","legacy","Kafkaesque Koffka","3.2.5","0","s","NA","s","h","NA","s","479","NA","19877","11642","NA","479","2","legacy","1024","2","48000","-16","experiment","HHSHH","3","odd","23465","171801","NA","184318","172681","NA","192532","191455","3573","160158","NA","192645","193125","192522","192645","3551","Flanker Task","92","46552","93","yes","1024"
"98.9361702128","98.9361702128","499.457446809","499.457446809","black","legacy","legacy","legacy","0","Incongruent","uniform","1","undefined","1","h","0","0","0","93","93","0","93","93","0","0","0","93","93","93","93","0","Fri Sep  7 13:48:00 2018","600","The main experiment item","yes","FlankerTask.osexp","/Users/emmaleemorgan/Desktop","no","mono","no","18","no","white","no","yes","768","legacy","13","79","/Users/emmaleemorgan/Desktop/EM subject-3, f, 37.csv","legacy","Kafkaesque Koffka","3.2.5","0","h","NA","s","h","NA","h","397","NA","19877","11642","NA","397","2","legacy","1024","2","48000","-16","experiment","SSHSS","3","odd","23465","171801","NA","184318","172681","NA","194212","193140","3573","160158","NA","194324","194722","194202","194323","3551","Flanker Task","93","46949","94","yes","1024"
"97.8947368421","97.8947368421","499.052631579","499.052631579","black","legacy","legacy","legacy","0","Incongruent","uniform","0","undefined","0","h","0","0","0","94","94","0","94","94","0","0","0","94","94","94","94","0","Fri Sep  7 13:48:00 2018","600","The main experiment item","yes","FlankerTask.osexp","/Users/emmaleemorgan/Desktop","no","mono","no","18","no","white","no","yes","768","legacy","14","79","/Users/emmaleemorgan/Desktop/EM subject-3, f, 37.csv","legacy","Kafkaesque Koffka","3.2.5","0","s","NA","s","h","NA","s","461","NA","19877","11642","NA","461","2","legacy","1024","2","48000","-16","experiment","SSHSS","3","odd","23465","171801","NA","184318","172681","NA","195806","194735","3573","160158","NA","195917","196380","195796","195917","3551","Flanker Task","93","47410","95","yes","1024"
"97.9166666667","97.9166666667","499.197916667","499.197916667","black","legacy","legacy","legacy","0","Incongruent","uniform","1","undefined","1","s","0","0","0","95","95","0","95","95","0","0","0","95","95","95","95","0","Fri Sep  7 13:48:00 2018","600","The main experiment item","yes","FlankerTask.osexp","/Users/emmaleemorgan/Desktop","no","mono","no","18","no","white","no","yes","768","legacy","15","79","/Users/emmaleemorgan/Desktop/EM subject-3, f, 37.csv","legacy","Kafkaesque Koffka","3.2.5","0","s","NA","s","h","NA","s","513","NA","19877","11642","NA","513","2","legacy","1024","2","48000","-16","experiment","HHSHH","3","odd","23465","171801","NA","196394","172681","NA","197974","196906","3573","160158","NA","198084","198599","197964","198084","3551","Flanker Task","94","47923","96","yes","1024"
"97.9381443299","97.9381443299","499.484536082","499.484536082","black","legacy","legacy","legacy","0","Incongruent","uniform","1","undefined","1","s","0","0","0","96","96","0","96","96","0","0","0","96","96","96","96","0","Fri Sep  7 13:48:00 2018","600","The main experiment item","yes","FlankerTask.osexp","/Users/emmaleemorgan/Desktop","no","mono","no","18","no","white","no","yes","768","legacy","16","79","/Users/emmaleemorgan/Desktop/EM subject-3, f, 37.csv","legacy","Kafkaesque Koffka","3.2.5","0","s","NA","s","h","NA","s","527","NA","19877","11642","NA","527","2","legacy","1024","2","48000","-16","experiment","HHSHH","3","odd","23465","171801","NA","196394","172681","NA","199680","198612","3573","160158","NA","199791","200320","199670","199791","3551","Flanker Task","95","48450","97","yes","1024"
"97.9591836735","97.9591836735","502.204081633","502.204081633","black","legacy","legacy","legacy","0","Congruent","uniform","1","undefined","1","s","0","0","0","97","97","0","97","97","0","0","0","97","97","97","97","0","Fri Sep  7 13:48:00 2018","600","The main experiment item","yes","FlankerTask.osexp","/Users/emmaleemorgan/Desktop","no","mono","no","18","no","white","no","yes","768","legacy","17","79","/Users/emmaleemorgan/Desktop/EM subject-3, f, 37.csv","legacy","Kafkaesque Koffka","3.2.5","0","s","NA","s","h","NA","s","766","NA","19877","11642","NA","766","2","legacy","1024","2","48000","-16","experiment","SSSSS","3","odd","23465","171801","NA","196394","172681","NA","201401","200333","3573","160158","NA","201513","202281","201391","201513","3551","Flanker Task","96","49216","98","yes","1024"
"97.9797979798","97.9797979798","502.707070707","502.707070707","black","legacy","legacy","legacy","0","Congruent","uniform","1","undefined","1","h","0","0","0","98","98","0","98","98","0","0","0","98","98","98","98","0","Fri Sep  7 13:48:00 2018","600","The main experiment item","yes","FlankerTask.osexp","/Users/emmaleemorgan/Desktop","no","mono","no","18","no","white","no","yes","768","legacy","18","79","/Users/emmaleemorgan/Desktop/EM subject-3, f, 37.csv","legacy","Kafkaesque Koffka","3.2.5","0","h","NA","s","h","NA","h","552","NA","19877","11642","NA","552","2","legacy","1024","2","48000","-16","experiment","HHHHH","3","odd","23465","171801","NA","196394","202293","NA","203872","202803","3573","160158","NA","203983","204537","203862","203983","3551","Flanker Task","97","49768","99","yes","1024"
"98","98","501.83","501.83","black","legacy","legacy","legacy","0","Congruent","uniform","1","undefined","1","h","0","0","0","99","99","0","99","99","0","0","0","99","99","99","99","0","Fri Sep  7 13:48:00 2018","600","The main experiment item","yes","FlankerTask.osexp","/Users/emmaleemorgan/Desktop","no","mono","no","18","no","white","no","yes","768","legacy","19","79","/Users/emmaleemorgan/Desktop/EM subject-3, f, 37.csv","legacy","Kafkaesque Koffka","3.2.5","0","h","NA","s","h","NA","h","415","NA","19877","11642","NA","415","2","legacy","1024","2","48000","-16","experiment","HHHHH","3","odd","23465","171801","NA","196394","202293","NA","205622","204550","3573","160158","NA","205742","206158","205612","205742","3551","Flanker Task","98","50183","100","yes","1024"
"98.0198019802","98.0198019802","501.891089109","501.891089109","black","legacy","legacy","legacy","0","Incongruent","uniform","1","undefined","1","h","0","0","0","100","100","0","100","100","0","0","0","100","100","100","100","0","Fri Sep  7 13:48:00 2018","600","The main experiment item","yes","FlankerTask.osexp","/Users/emmaleemorgan/Desktop","no","mono","no","18","no","white","no","yes","768","legacy","20","79","/Users/emmaleemorgan/Desktop/EM subject-3, f, 37.csv","legacy","Kafkaesque Koffka","3.2.5","0","h","NA","s","h","NA","h","508","NA","19877","11642","NA","508","2","legacy","1024","2","48000","-16","experiment","SSHSS","3","odd","23465","171801","NA","196394","202293","NA","207241","206170","3573","160158","NA","207353","207862","207231","207353","3551","Flanker Task","99","50691","101","yes","1024"
"98.0392156863","98.0392156863","501.843137255","501.843137255","black","legacy","legacy","legacy","0","Congruent","uniform","1","undefined","1","h","0","0","0","101","101","0","101","101","0","0","0","101","101","101","101","0","Fri Sep  7 13:48:00 2018","600","The main experiment item","yes","FlankerTask.osexp","/Users/emmaleemorgan/Desktop","no","mono","no","18","no","white","no","yes","768","legacy","21","79","/Users/emmaleemorgan/Desktop/EM subject-3, f, 37.csv","legacy","Kafkaesque Koffka","3.2.5","0","h","NA","s","h","NA","h","497","NA","19877","11642","NA","497","2","legacy","1024","2","48000","-16","experiment","HHHHH","3","odd","23465","171801","NA","196394","202293","NA","208947","207875","3573","160158","NA","209058","209557","208937","209058","3551","Flanker Task","100","51188","102","yes","1024"
"98.0582524272","98.0582524272","501.174757282","501.174757282","black","legacy","legacy","legacy","0","Incongruent","uniform","1","undefined","1","s","0","0","0","102","102","0","102","102","0","0","0","102","102","102","102","0","Fri Sep  7 13:48:00 2018","600","The main experiment item","yes","FlankerTask.osexp","/Users/emmaleemorgan/Desktop","no","mono","no","18","no","white","no","yes","768","legacy","22","79","/Users/emmaleemorgan/Desktop/EM subject-3, f, 37.csv","legacy","Kafkaesque Koffka","3.2.5","0","s","NA","s","h","NA","s","433","NA","19877","11642","NA","433","2","legacy","1024","2","48000","-16","experiment","HHSHH","3","odd","23465","171801","NA","196394","202293","NA","210643","209570","3573","160158","NA","210755","211190","210633","210755","3551","Flanker Task","101","51621","103","yes","1024"
"98.0769230769","98.0769230769","500.269230769","500.269230769","black","legacy","legacy","legacy","0","Congruent","uniform","1","undefined","1","s","0","0","0","103","103","0","103","103","0","0","0","103","103","103","103","0","Fri Sep  7 13:48:00 2018","600","The main experiment item","yes","FlankerTask.osexp","/Users/emmaleemorgan/Desktop","no","mono","no","18","no","white","no","yes","768","legacy","23","79","/Users/emmaleemorgan/Desktop/EM subject-3, f, 37.csv","legacy","Kafkaesque Koffka","3.2.5","0","s","NA","s","h","NA","s","407","NA","19877","11642","NA","407","2","legacy","1024","2","48000","-16","experiment","SSSSS","3","odd","23465","171801","NA","196394","202293","NA","212274","211202","3573","160158","NA","212386","212794","212263","212386","3551","Flanker Task","102","52028","104","yes","1024"
"98.0952380952","98.0952380952","499.971428571","499.971428571","black","legacy","legacy","legacy","0","Congruent","uniform","1","undefined","1","s","0","0","0","104","104","0","104","104","0","0","0","104","104","104","104","0","Fri Sep  7 13:48:00 2018","600","The main experiment item","yes","FlankerTask.osexp","/Users/emmaleemorgan/Desktop","no","mono","no","18","no","white","no","yes","768","legacy","24","79","/Users/emmaleemorgan/Desktop/EM subject-3, f, 37.csv","legacy","Kafkaesque Koffka","3.2.5","0","s","NA","s","h","NA","s","469","NA","19877","11642","NA","469","2","legacy","1024","2","48000","-16","experiment","SSSSS","3","odd","23465","171801","NA","196394","202293","NA","213876","212807","3573","160158","NA","213990","214460","213866","213990","3551","Flanker Task","103","52497","105","yes","1024"
"97.1698113208","97.1698113208","499.018867925","499.018867925","black","legacy","legacy","legacy","0","Congruent","uniform","0","undefined","0","h","0","0","0","105","105","0","105","105","0","0","0","105","105","105","105","0","Fri Sep  7 13:48:00 2018","600","The main experiment item","yes","FlankerTask.osexp","/Users/emmaleemorgan/Desktop","no","mono","no","18","no","white","no","yes","768","legacy","25","79","/Users/emmaleemorgan/Desktop/EM subject-3, f, 37.csv","legacy","Kafkaesque Koffka","3.2.5","0","s","NA","s","h","NA","s","399","NA","19877","11642","NA","399","2","legacy","1024","2","48000","-16","experiment","HHHHH","3","odd","23465","171801","NA","196394","202293","NA","215547","214473","3573","160158","NA","215657","216057","215537","215657","3551","Flanker Task","103","52896","106","yes","1024"
"97.1962616822","97.1962616822","499.046728972","499.046728972","black","legacy","legacy","legacy","0","Incongruent","uniform","1","undefined","1","s","0","0","0","106","106","0","106","106","0","0","0","106","106","106","106","0","Fri Sep  7 13:48:00 2018","600","The main experiment item","yes","FlankerTask.osexp","/Users/emmaleemorgan/Desktop","no","mono","no","18","no","white","no","yes","768","legacy","26","79","/Users/emmaleemorgan/Desktop/EM subject-3, f, 37.csv","legacy","Kafkaesque Koffka","3.2.5","0","s","NA","s","h","NA","s","502","NA","19877","11642","NA","502","2","legacy","1024","2","48000","-16","experiment","HHSHH","3","odd","23465","171801","NA","216070","202293","NA","217654","216581","3573","160158","NA","217766","218269","217644","217765","3551","Flanker Task","104","53398","107","yes","1024"
"97.2222222222","97.2222222222","498.509259259","498.509259259","black","legacy","legacy","legacy","0","Congruent","uniform","1","undefined","1","h","0","0","0","107","107","0","107","107","0","0","0","107","107","107","107","0","Fri Sep  7 13:48:00 2018","600","The main experiment item","yes","FlankerTask.osexp","/Users/emmaleemorgan/Desktop","no","mono","no","18","no","white","no","yes","768","legacy","27","79","/Users/emmaleemorgan/Desktop/EM subject-3, f, 37.csv","legacy","Kafkaesque Koffka","3.2.5","0","h","NA","s","h","NA","h","441","NA","19877","11642","NA","441","2","legacy","1024","2","48000","-16","experiment","HHHHH","3","odd","23465","171801","NA","216070","202293","NA","219355","218282","3573","160158","NA","219469","219912","219345","219469","3551","Flanker Task","105","53839","108","yes","1024"
"97.247706422","97.247706422","498.165137615","498.165137615","black","legacy","legacy","legacy","0","Congruent","uniform","1","undefined","1","s","0","0","0","108","108","0","108","108","0","0","0","108","108","108","108","0","Fri Sep  7 13:48:00 2018","600","The main experiment item","yes","FlankerTask.osexp","/Users/emmaleemorgan/Desktop","no","mono","no","18","no","white","no","yes","768","legacy","28","79","/Users/emmaleemorgan/Desktop/EM subject-3, f, 37.csv","legacy","Kafkaesque Koffka","3.2.5","0","s","NA","s","h","NA","s","461","NA","19877","11642","NA","461","2","legacy","1024","2","48000","-16","experiment","SSSSS","3","odd","23465","171801","NA","216070","202293","NA","220996","219924","3573","160158","NA","221108","221570","220986","221107","3551","Flanker Task","106","54300","109","yes","1024"
"97.2727272727","97.2727272727","497.118181818","497.118181818","black","legacy","legacy","legacy","0","Congruent","uniform","1","undefined","1","h","0","0","0","109","109","0","109","109","0","0","0","109","109","109","109","0","Fri Sep  7 13:48:00 2018","600","The main experiment item","yes","FlankerTask.osexp","/Users/emmaleemorgan/Desktop","no","mono","no","18","no","white","no","yes","768","legacy","29","79","/Users/emmaleemorgan/Desktop/EM subject-3, f, 37.csv","legacy","Kafkaesque Koffka","3.2.5","0","h","NA","s","h","NA","h","383","NA","19877","11642","NA","383","2","legacy","1024","2","48000","-16","experiment","HHHHH","3","odd","23465","171801","NA","216070","202293","NA","222653","221584","3573","160158","NA","222766","223151","222642","222766","3551","Flanker Task","107","54683","110","yes","1024"
"97.2972972973","97.2972972973","496.387387387","496.387387387","black","legacy","legacy","legacy","0","Congruent","uniform","1","undefined","1","h","0","0","0","110","110","0","110","110","0","0","0","110","110","110","110","0","Fri Sep  7 13:48:00 2018","600","The main experiment item","yes","FlankerTask.osexp","/Users/emmaleemorgan/Desktop","no","mono","no","18","no","white","no","yes","768","legacy","30","79","/Users/emmaleemorgan/Desktop/EM subject-3, f, 37.csv","legacy","Kafkaesque Koffka","3.2.5","0","h","NA","s","h","NA","h","416","NA","19877","11642","NA","416","2","legacy","1024","2","48000","-16","experiment","HHHHH","3","odd","23465","171801","NA","216070","202293","NA","224235","223164","3573","160158","NA","224348","224766","224225","224348","3551","Flanker Task","108","55099","111","yes","1024"
"97.3214285714","97.3214285714","496.383928571","496.383928571","black","legacy","legacy","legacy","0","Congruent","uniform","1","undefined","1","s","0","0","0","111","111","0","111","111","0","0","0","111","111","111","111","0","Fri Sep  7 13:48:00 2018","600","The main experiment item","yes","FlankerTask.osexp","/Users/emmaleemorgan/Desktop","no","mono","no","18","no","white","no","yes","768","legacy","31","79","/Users/emmaleemorgan/Desktop/EM subject-3, f, 37.csv","legacy","Kafkaesque Koffka","3.2.5","0","s","NA","s","h","NA","s","496","NA","19877","11642","NA","496","2","legacy","1024","2","48000","-16","experiment","SSSSS","3","odd","23465","171801","NA","216070","202293","NA","225851","224778","3573","160158","NA","225963","226461","225841","225963","3551","Flanker Task","109","55595","112","yes","1024"
"97.3451327434","97.3451327434","496.159292035","496.159292035","black","legacy","legacy","legacy","0","Congruent","uniform","1","undefined","1","h","0","0","0","112","112","0","112","112","0","0","0","112","112","112","112","0","Fri Sep  7 13:48:00 2018","600","The main experiment item","yes","FlankerTask.osexp","/Users/emmaleemorgan/Desktop","no","mono","no","18","no","white","no","yes","768","legacy","32","79","/Users/emmaleemorgan/Desktop/EM subject-3, f, 37.csv","legacy","Kafkaesque Koffka","3.2.5","0","h","NA","s","h","NA","h","471","NA","19877","11642","NA","471","2","legacy","1024","2","48000","-16","experiment","HHHHH","3","odd","23465","171801","NA","216070","202293","NA","227545","226473","3573","160158","NA","227656","228129","227536","227656","3551","Flanker Task","110","56066","113","yes","1024"
"97.3684210526","97.3684210526","496.131578947","496.131578947","black","legacy","legacy","legacy","0","Incongruent","uniform","1","undefined","1","s","0","0","0","113","113","0","113","113","0","0","0","113","113","113","113","0","Fri Sep  7 13:48:00 2018","600","The main experiment item","yes","FlankerTask.osexp","/Users/emmaleemorgan/Desktop","no","mono","no","18","no","white","no","yes","768","legacy","33","79","/Users/emmaleemorgan/Desktop/EM subject-3, f, 37.csv","legacy","Kafkaesque Koffka","3.2.5","0","s","NA","s","h","NA","s","493","NA","19877","11642","NA","493","2","legacy","1024","2","48000","-16","experiment","HHSHH","3","odd","23465","171801","NA","216070","202293","NA","229213","228141","3573","160158","NA","229327","229823","229203","229326","3551","Flanker Task","111","56559","114","yes","1024"
"97.3913043478","97.3913043478","495.913043478","495.913043478","black","legacy","legacy","legacy","0","Congruent","uniform","1","undefined","1","s","0","0","0","114","114","0","114","114","0","0","0","114","114","114","114","0","Fri Sep  7 13:48:00 2018","600","The main experiment item","yes","FlankerTask.osexp","/Users/emmaleemorgan/Desktop","no","mono","no","18","no","white","no","yes","768","legacy","34","79","/Users/emmaleemorgan/Desktop/EM subject-3, f, 37.csv","legacy","Kafkaesque Koffka","3.2.5","0","s","NA","s","h","NA","s","471","NA","19877","11642","NA","471","2","legacy","1024","2","48000","-16","experiment","SSSSS","3","odd","23465","171801","NA","216070","202293","NA","230909","229839","3573","160158","NA","231021","231494","230899","231020","3551","Flanker Task","112","57030","115","yes","1024"
"97.4137931034","97.4137931034","495.862068966","495.862068966","black","legacy","legacy","legacy","0","Incongruent","uniform","1","undefined","1","s","0","0","0","115","115","0","115","115","0","0","0","115","115","115","115","0","Fri Sep  7 13:48:00 2018","600","The main experiment item","yes","FlankerTask.osexp","/Users/emmaleemorgan/Desktop","no","mono","no","18","no","white","no","yes","768","legacy","35","79","/Users/emmaleemorgan/Desktop/EM subject-3, f, 37.csv","legacy","Kafkaesque Koffka","3.2.5","0","s","NA","s","h","NA","s","490","NA","19877","11642","NA","490","2","legacy","1024","2","48000","-16","experiment","HHSHH","3","odd","23465","171801","NA","216070","202293","NA","232579","231506","3573","160158","NA","232691","233183","232569","232691","3551","Flanker Task","113","57520","116","yes","1024"
"97.4358974359","97.4358974359","495.247863248","495.247863248","black","legacy","legacy","legacy","0","Incongruent","uniform","1","undefined","1","h","0","0","0","116","116","0","116","116","0","0","0","116","116","116","116","0","Fri Sep  7 13:48:00 2018","600","The main experiment item","yes","FlankerTask.osexp","/Users/emmaleemorgan/Desktop","no","mono","no","18","no","white","no","yes","768","legacy","36","79","/Users/emmaleemorgan/Desktop/EM subject-3, f, 37.csv","legacy","Kafkaesque Koffka","3.2.5","0","h","NA","s","h","NA","h","424","NA","19877","11642","NA","424","2","legacy","1024","2","48000","-16","experiment","SSHSS","3","odd","23465","171801","NA","216070","202293","NA","234266","233195","3573","160158","NA","234378","234804","234256","234378","3551","Flanker Task","114","57944","117","yes","1024"
"97.4576271186","97.4576271186","494.5","494.5","black","legacy","legacy","legacy","0","Incongruent","uniform","1","undefined","1","h","0","0","0","117","117","0","117","117","0","0","0","117","117","117","117","0","Fri Sep  7 13:48:00 2018","600","The main experiment item","yes","FlankerTask.osexp","/Users/emmaleemorgan/Desktop","no","mono","no","18","no","white","no","yes","768","legacy","37","79","/Users/emmaleemorgan/Desktop/EM subject-3, f, 37.csv","legacy","Kafkaesque Koffka","3.2.5","0","h","NA","s","h","NA","h","407","NA","19877","11642","NA","407","2","legacy","1024","2","48000","-16","experiment","SSHSS","3","odd","23465","171801","NA","216070","202293","NA","235888","234817","3573","160158","NA","236000","236409","235878","236000","3551","Flanker Task","115","58351","118","yes","1024"
"97.4789915966","97.4789915966","494.638655462","494.638655462","black","legacy","legacy","legacy","0","Congruent","uniform","1","undefined","1","s","0","0","0","118","118","0","118","118","0","0","0","118","118","118","118","0","Fri Sep  7 13:48:00 2018","600","The main experiment item","yes","FlankerTask.osexp","/Users/emmaleemorgan/Desktop","no","mono","no","18","no","white","no","yes","768","legacy","38","79","/Users/emmaleemorgan/Desktop/EM subject-3, f, 37.csv","legacy","Kafkaesque Koffka","3.2.5","0","s","NA","s","h","NA","s","511","NA","19877","11642","NA","511","2","legacy","1024","2","48000","-16","experiment","SSSSS","3","odd","23465","171801","NA","216070","202293","NA","237493","236423","3573","160158","NA","237607","238120","237483","237607","3551","Flanker Task","116","58862","119","yes","1024"
"97.5","97.5","495.15","495.15","black","legacy","legacy","legacy","0","Incongruent","uniform","1","undefined","1","s","0","0","0","119","119","0","119","119","0","0","0","119","119","119","119","0","Fri Sep  7 13:48:00 2018","600","The main experiment item","yes","FlankerTask.osexp","/Users/emmaleemorgan/Desktop","no","mono","no","18","no","white","no","yes","768","legacy","39","79","/Users/emmaleemorgan/Desktop/EM subject-3, f, 37.csv","legacy","Kafkaesque Koffka","3.2.5","0","s","NA","s","h","NA","s","556","NA","19877","11642","NA","556","2","legacy","1024","2","48000","-16","experiment","HHSHH","3","odd","23465","171801","NA","216070","202293","NA","239204","238132","3573","160158","NA","239316","239874","239194","239316","3551","Flanker Task","117","59418","120","yes","1024"
"97.520661157","97.520661157","496.247933884","496.247933884","black","legacy","legacy","legacy","0","Incongruent","uniform","1","undefined","1","s","0","0","0","120","120","0","120","120","0","0","0","120","120","120","120","0","Fri Sep  7 13:48:00 2018","600","The main experiment item","yes","FlankerTask.osexp","/Users/emmaleemorgan/Desktop","no","mono","no","18","no","white","no","yes","768","legacy","40","79","/Users/emmaleemorgan/Desktop/EM subject-3, f, 37.csv","legacy","Kafkaesque Koffka","3.2.5","0","s","NA","s","h","NA","s","628","NA","19877","11642","NA","628","2","legacy","1024","2","48000","-16","experiment","HHSHH","3","odd","23465","171801","NA","216070","202293","NA","240956","239886","3573","160158","NA","241067","241697","240946","241067","3551","Flanker Task","118","60046","121","yes","1024"
"97.5409836066","97.5409836066","497.295081967","497.295081967","black","legacy","legacy","legacy","0","Congruent","uniform","1","undefined","1","h","0","0","0","121","121","0","121","121","0","0","0","121","121","121","121","0","Fri Sep  7 13:48:00 2018","600","The main experiment item","yes","FlankerTask.osexp","/Users/emmaleemorgan/Desktop","no","mono","no","18","no","white","no","yes","768","legacy","41","79","/Users/emmaleemorgan/Desktop/EM subject-3, f, 37.csv","legacy","Kafkaesque Koffka","3.2.5","0","h","NA","s","h","NA","h","624","NA","19877","11642","NA","624","2","legacy","1024","2","48000","-16","experiment","HHHHH","3","odd","23465","171801","NA","216070","241710","NA","243289","242220","3573","160158","NA","243399","244025","243279","243399","3551","Flanker Task","119","60670","122","yes","1024"
"97.5609756098","97.5609756098","497.219512195","497.219512195","black","legacy","legacy","legacy","0","Incongruent","uniform","1","undefined","1","h","0","0","0","122","122","0","122","122","0","0","0","122","122","122","122","0","Fri Sep  7 13:48:00 2018","600","The main experiment item","yes","FlankerTask.osexp","/Users/emmaleemorgan/Desktop","no","mono","no","18","no","white","no","yes","768","legacy","42","79","/Users/emmaleemorgan/Desktop/EM subject-3, f, 37.csv","legacy","Kafkaesque Koffka","3.2.5","0","h","NA","s","h","NA","h","488","NA","19877","11642","NA","488","2","legacy","1024","2","48000","-16","experiment","SSHSS","3","odd","23465","171801","NA","216070","244037","NA","245622","244549","3573","160158","NA","245734","246224","245612","245734","3551","Flanker Task","120","61158","123","yes","1024"
"97.5806451613","97.5806451613","496.733870968","496.733870968","black","legacy","legacy","legacy","0","Incongruent","uniform","1","undefined","1","h","0","0","0","123","123","0","123","123","0","0","0","123","123","123","123","0","Fri Sep  7 13:48:00 2018","600","The main experiment item","yes","FlankerTask.osexp","/Users/emmaleemorgan/Desktop","no","mono","no","18","no","white","no","yes","768","legacy","43","79","/Users/emmaleemorgan/Desktop/EM subject-3, f, 37.csv","legacy","Kafkaesque Koffka","3.2.5","0","h","NA","s","h","NA","h","437","NA","19877","11642","NA","437","2","legacy","1024","2","48000","-16","experiment","SSHSS","3","odd","23465","171801","NA","216070","244037","NA","247307","246236","3573","160158","NA","247419","247858","247297","247419","3551","Flanker Task","121","61595","124","yes","1024"
"97.6","97.6","496.544","496.544","black","legacy","legacy","legacy","0","Incongruent","uniform","1","undefined","1","h","0","0","0","124","124","0","124","124","0","0","0","124","124","124","124","0","Fri Sep  7 13:48:00 2018","600","The main experiment item","yes","FlankerTask.osexp","/Users/emmaleemorgan/Desktop","no","mono","no","18","no","white","no","yes","768","legacy","44","79","/Users/emmaleemorgan/Desktop/EM subject-3, f, 37.csv","legacy","Kafkaesque Koffka","3.2.5","0","h","NA","s","h","NA","h","473","NA","19877","11642","NA","473","2","legacy","1024","2","48000","-16","experiment","SSHSS","3","odd","23465","171801","NA","216070","244037","NA","248942","247871","3573","160158","NA","249054","249529","248932","249053","3551","Flanker Task","122","62068","125","yes","1024"
