"acc","accuracy","average_response_time","avg_rt","background","bidi","canvas_backend","clock_backend","color_backend","compensation","condition","coordinates","correct","correct_instructions","correct_keyboard_response","correct_response","count_Block1","count_Block2","count_Block3","count_Fixation","count_ISI","count_Sequence","count_errorFeedback","count_experiment","count_faster","count_finish","count_getting_started","count_instructions","count_instructions2","count_instructions3","count_keyboard_response","count_logger","count_stimulus","count_welcome","datetime","deadline","description","disable_garbage_collection","experiment_file","experiment_path","font_bold","font_family","font_italic","font_size","font_underline","foreground","form_clicks","fullscreen","height","keyboard_backend","live_row","live_row_Block1","logfile","mouse_backend","opensesame_codename","opensesame_version","repeat_cycle","response","response_finish","response_instructions","response_instructions2","response_instructions3","response_keyboard_response","response_time","response_time_finish","response_time_instructions","response_time_instructions2","response_time_instructions3","response_time_keyboard_response","response_time_welcome","response_welcome","round_decimals","sampler_backend","sound_buf_size","sound_channels","sound_freq","sound_sample_size","start","stimulus","subject_nr","subject_parity","time_Block1","time_Block2","time_Block3","time_Fixation","time_ISI","time_Sequence","time_errorFeedback","time_experiment","time_faster","time_finish","time_getting_started","time_instructions","time_instructions2","time_instructions3","time_keyboard_response","time_logger","time_stimulus","time_welcome","title","total_correct","total_response_time","total_responses","uniform_coordinates","width"
"100","100","673","673","black","no","xpyriment","legacy","legacy","0","incongruent","uniform","1","undefined","1","s","0","0","0","0","0","0","0","0","0","0","NA","0","0","0","0","0","0","NA","09/08/18 23:35:45","1500","The main experiment item","yes","Flankertest.osexp","C:\Users\Knitwitty\AppData\Roaming","no","mono","no","18","no","white","no","yes","768","legacy","0","0","C:/Users/Knitwitty/AppData/Roaming/KB-subject-2.csv","xpyriment","Jazzy James","3.1.9","0","s","NA","h","NA","NA","s","673","NA","3369","NA","NA","673","NA","NA","2","legacy","1024","2","48000","-16","experiment","HHSHH","2","even","13573","NA","NA","14376","NA","14346","NA","10158","NA","NA","NA","10203","NA","NA","14491","15165","14491","NA","Flanker test","1","673","1","yes","1024"
"100","100","508.5","508.5","black","no","xpyriment","legacy","legacy","0","congruent","uniform","1","undefined","1","h","0","0","0","1","1","1","1","0","1","0","NA","0","0","0","1","1","1","NA","09/08/18 23:35:45","1500","The main experiment item","yes","Flankertest.osexp","C:\Users\Knitwitty\AppData\Roaming","no","mono","no","18","no","white","no","yes","768","legacy","1","1","C:/Users/Knitwitty/AppData/Roaming/KB-subject-2.csv","xpyriment","Jazzy James","3.1.9","0","h","NA","h","NA","NA","h","344","NA","3369","NA","NA","344","NA","NA","2","legacy","1024","2","48000","-16","experiment","HHHHH","2","even","13573","NA","NA","17080","15204","17043","NA","10158","NA","NA","NA","10203","NA","NA","17196","17541","17196","NA","Flanker test","2","1017","2","yes","1024"
"100","100","475.666666667","475.666666667","black","no","xpyriment","legacy","legacy","0","congruent","uniform","1","undefined","1","s","0","0","0","2","2","2","2","0","2","0","NA","0","0","0","2","2","2","NA","09/08/18 23:35:45","1500","The main experiment item","yes","Flankertest.osexp","C:\Users\Knitwitty\AppData\Roaming","no","mono","no","18","no","white","no","yes","768","legacy","2","2","C:/Users/Knitwitty/AppData/Roaming/KB-subject-2.csv","xpyriment","Jazzy James","3.1.9","0","s","NA","h","NA","NA","s","410","NA","3369","NA","NA","410","NA","NA","2","legacy","1024","2","48000","-16","experiment","SSSSS","2","even","13573","NA","NA","19414","17564","19382","NA","10158","NA","NA","NA","10203","NA","NA","19530","19941","19530","NA","Flanker test","3","1427","3","yes","1024"
"100","100","448.75","448.75","black","no","xpyriment","legacy","legacy","0","congruent","uniform","1","undefined","1","h","0","0","0","3","3","3","3","0","3","0","NA","0","0","0","3","3","3","NA","09/08/18 23:35:45","1500","The main experiment item","yes","Flankertest.osexp","C:\Users\Knitwitty\AppData\Roaming","no","mono","no","18","no","white","no","yes","768","legacy","3","3","C:/Users/Knitwitty/AppData/Roaming/KB-subject-2.csv","xpyriment","Jazzy James","3.1.9","0","h","NA","h","NA","NA","h","368","NA","3369","NA","NA","368","NA","NA","2","legacy","1024","2","48000","-16","experiment","HHHHH","2","even","13573","NA","NA","21806","19960","21768","NA","10158","NA","NA","NA","10203","NA","NA","21923","22293","21922","NA","Flanker test","4","1795","4","yes","1024"
"80","80","446.8","446.8","black","no","xpyriment","legacy","legacy","0","incongruent","uniform","0","undefined","0","h","0","0","0","4","4","4","4","0","4","0","NA","0","0","0","4","4","4","NA","09/08/18 23:35:45","1500","The main experiment item","yes","Flankertest.osexp","C:\Users\Knitwitty\AppData\Roaming","no","mono","no","18","no","white","no","yes","768","legacy","4","4","C:/Users/Knitwitty/AppData/Roaming/KB-subject-2.csv","xpyriment","Jazzy James","3.1.9","0","s","NA","h","NA","NA","s","439","NA","3369","NA","NA","439","NA","NA","2","legacy","1024","2","48000","-16","experiment","SSHSS","2","even","13573","NA","NA","24184","22321","24150","NA","10158","NA","NA","NA","10203","NA","NA","24301","24741","24300","NA","Flanker test","4","2234","5","yes","1024"
"83.3333333333","83.3333333333","478.166666667","478.166666667","black","no","xpyriment","legacy","legacy","0","incongruent","uniform","1","undefined","1","s","0","0","0","5","5","5","5","0","5","0","NA","0","0","0","5","5","5","NA","09/08/18 23:35:45","1500","The main experiment item","yes","Flankertest.osexp","C:\Users\Knitwitty\AppData\Roaming","no","mono","no","18","no","white","no","yes","768","legacy","5","5","C:/Users/Knitwitty/AppData/Roaming/KB-subject-2.csv","xpyriment","Jazzy James","3.1.9","0","s","NA","h","NA","NA","s","635","NA","3369","NA","NA","635","NA","NA","2","legacy","1024","2","48000","-16","experiment","HHSHH","2","even","13573","NA","NA","27148","25287","27114","24781","10158","NA","NA","NA","10203","NA","NA","27265","27902","27264","NA","Flanker test","5","2869","6","yes","1024"
"85.7142857143","85.7142857143","489.714285714","489.714285714","black","no","xpyriment","legacy","legacy","0","incongruent","uniform","1","undefined","1","h","0","0","0","6","6","6","6","0","6","0","NA","0","0","0","6","6","6","NA","09/08/18 23:35:45","1500","The main experiment item","yes","Flankertest.osexp","C:\Users\Knitwitty\AppData\Roaming","no","mono","no","18","no","white","no","yes","768","legacy","6","6","C:/Users/Knitwitty/AppData/Roaming/KB-subject-2.csv","xpyriment","Jazzy James","3.1.9","0","h","NA","h","NA","NA","h","559","NA","3369","NA","NA","559","NA","NA","2","legacy","1024","2","48000","-16","experiment","SSHSS","2","even","13573","NA","NA","29799","27921","29759","24781","10158","NA","NA","NA","10203","NA","NA","29917","30478","29916","NA","Flanker test","6","3428","7","yes","1024"
"87.5","87.5","483.5","483.5","black","no","xpyriment","legacy","legacy","0","incongruent","uniform","1","undefined","1","h","0","0","0","7","7","7","7","0","7","0","NA","0","0","0","7","7","7","NA","09/08/18 23:35:45","1500","The main experiment item","yes","Flankertest.osexp","C:\Users\Knitwitty\AppData\Roaming","no","mono","no","18","no","white","no","yes","768","legacy","7","7","C:/Users/Knitwitty/AppData/Roaming/KB-subject-2.csv","xpyriment","Jazzy James","3.1.9","0","h","NA","h","NA","NA","h","440","NA","3369","NA","NA","440","NA","NA","2","legacy","1024","2","48000","-16","experiment","SSHSS","2","even","13573","NA","NA","32342","30496","32305","24781","10158","NA","NA","NA","10203","NA","NA","32459","32901","32458","NA","Flanker test","7","3868","8","yes","1024"
"88.8888888889","88.8888888889","483.666666667","483.666666667","black","no","xpyriment","legacy","legacy","0","incongruent","uniform","1","undefined","1","s","0","0","0","8","8","8","8","0","8","0","NA","0","0","0","8","8","8","NA","09/08/18 23:35:45","1500","The main experiment item","yes","Flankertest.osexp","C:\Users\Knitwitty\AppData\Roaming","no","mono","no","18","no","white","no","yes","768","legacy","8","8","C:/Users/Knitwitty/AppData/Roaming/KB-subject-2.csv","xpyriment","Jazzy James","3.1.9","0","s","NA","h","NA","NA","s","485","NA","3369","NA","NA","485","NA","NA","2","legacy","1024","2","48000","-16","experiment","HHSHH","2","even","13573","NA","NA","34769","32920","34729","24781","10158","NA","NA","NA","10203","NA","NA","34887","35373","34886","NA","Flanker test","8","4353","9","yes","1024"
"90","90","489.5","489.5","black","no","xpyriment","legacy","legacy","0","congruent","uniform","1","undefined","1","s","0","0","0","9","9","9","9","0","9","0","NA","0","0","0","9","9","9","NA","09/08/18 23:35:45","1500","The main experiment item","yes","Flankertest.osexp","C:\Users\Knitwitty\AppData\Roaming","no","mono","no","18","no","white","no","yes","768","legacy","9","9","C:/Users/Knitwitty/AppData/Roaming/KB-subject-2.csv","xpyriment","Jazzy James","3.1.9","0","s","NA","h","NA","NA","s","542","NA","3369","NA","NA","542","NA","NA","2","legacy","1024","2","48000","-16","experiment","SSSSS","2","even","13573","NA","NA","37266","35400","37230","24781","10158","NA","NA","NA","10203","NA","NA","37382","37926","37382","NA","Flanker test","9","4895","10","yes","1024"
"90.9090909091","90.9090909091","488.454545455","488.454545455","black","no","xpyriment","legacy","legacy","0","incongruent","uniform","1","undefined","1","s","0","0","0","10","10","10","10","0","10","0","NA","0","0","0","10","10","10","NA","09/08/18 23:35:45","1500","The main experiment item","yes","Flankertest.osexp","C:\Users\Knitwitty\AppData\Roaming","no","mono","no","18","no","white","no","yes","768","legacy","10","10","C:/Users/Knitwitty/AppData/Roaming/KB-subject-2.csv","xpyriment","Jazzy James","3.1.9","0","s","NA","h","NA","NA","s","478","NA","3369","NA","NA","478","NA","NA","2","legacy","1024","2","48000","-16","experiment","HHSHH","2","even","13573","NA","NA","39808","37947","39774","24781","10158","NA","NA","NA","10203","NA","NA","39926","40406","39925","NA","Flanker test","10","5373","11","yes","1024"
"91.6666666667","91.6666666667","481.5","481.5","black","no","xpyriment","legacy","legacy","0","congruent","uniform","1","undefined","1","s","0","0","0","11","11","11","11","0","11","0","NA","0","0","0","11","11","11","NA","09/08/18 23:35:45","1500","The main experiment item","yes","Flankertest.osexp","C:\Users\Knitwitty\AppData\Roaming","no","mono","no","18","no","white","no","yes","768","legacy","11","11","C:/Users/Knitwitty/AppData/Roaming/KB-subject-2.csv","xpyriment","Jazzy James","3.1.9","0","s","NA","h","NA","NA","s","405","NA","3369","NA","NA","405","NA","NA","2","legacy","1024","2","48000","-16","experiment","SSSSS","2","even","13573","NA","NA","42259","40424","42223","24781","10158","NA","NA","NA","10203","NA","NA","42375","42781","42375","NA","Flanker test","11","5778","12","yes","1024"
"92.3076923077","92.3076923077","482.538461538","482.538461538","black","no","xpyriment","legacy","legacy","0","incongruent","uniform","1","undefined","1","h","0","0","0","12","12","12","12","0","12","0","NA","0","0","0","12","12","12","NA","09/08/18 23:35:45","1500","The main experiment item","yes","Flankertest.osexp","C:\Users\Knitwitty\AppData\Roaming","no","mono","no","18","no","white","no","yes","768","legacy","12","12","C:/Users/Knitwitty/AppData/Roaming/KB-subject-2.csv","xpyriment","Jazzy James","3.1.9","0","h","NA","h","NA","NA","h","495","NA","3369","NA","NA","495","NA","NA","2","legacy","1024","2","48000","-16","experiment","SSHSS","2","even","13573","NA","NA","44663","42811","44622","24781","10158","NA","NA","NA","10203","NA","NA","44780","45277","44780","NA","Flanker test","12","6273","13","yes","1024"
"92.8571428571","92.8571428571","485.571428571","485.571428571","black","no","xpyriment","legacy","legacy","0","congruent","uniform","1","undefined","1","h","0","0","0","13","13","13","13","0","13","0","NA","0","0","0","13","13","13","NA","09/08/18 23:35:45","1500","The main experiment item","yes","Flankertest.osexp","C:\Users\Knitwitty\AppData\Roaming","no","mono","no","18","no","white","no","yes","768","legacy","13","13","C:/Users/Knitwitty/AppData/Roaming/KB-subject-2.csv","xpyriment","Jazzy James","3.1.9","0","h","NA","h","NA","NA","h","525","NA","3369","NA","NA","525","NA","NA","2","legacy","1024","2","48000","-16","experiment","HHHHH","2","even","13573","NA","NA","47162","45295","47122","24781","10158","NA","NA","NA","10203","NA","NA","47279","47805","47278","NA","Flanker test","13","6798","14","yes","1024"
"93.3333333333","93.3333333333","483.466666667","483.466666667","black","no","xpyriment","legacy","legacy","0","congruent","uniform","1","undefined","1","s","0","0","0","14","14","14","14","0","14","0","NA","0","0","0","14","14","14","NA","09/08/18 23:35:45","1500","The main experiment item","yes","Flankertest.osexp","C:\Users\Knitwitty\AppData\Roaming","no","mono","no","18","no","white","no","yes","768","legacy","14","14","C:/Users/Knitwitty/AppData/Roaming/KB-subject-2.csv","xpyriment","Jazzy James","3.1.9","0","s","NA","h","NA","NA","s","454","NA","3369","NA","NA","454","NA","NA","2","legacy","1024","2","48000","-16","experiment","SSSSS","2","even","13573","NA","NA","49665","47830","49629","24781","10158","NA","NA","NA","10203","NA","NA","49782","50238","49781","NA","Flanker test","14","7252","15","yes","1024"
"93.75","93.75","479.25","479.25","black","no","xpyriment","legacy","legacy","0","congruent","uniform","1","undefined","1","h","0","0","0","15","15","15","15","0","15","0","NA","0","0","0","15","15","15","NA","09/08/18 23:35:45","1500","The main experiment item","yes","Flankertest.osexp","C:\Users\Knitwitty\AppData\Roaming","no","mono","no","18","no","white","no","yes","768","legacy","15","15","C:/Users/Knitwitty/AppData/Roaming/KB-subject-2.csv","xpyriment","Jazzy James","3.1.9","0","h","NA","h","NA","NA","h","416","NA","3369","NA","NA","416","NA","NA","2","legacy","1024","2","48000","-16","experiment","HHHHH","2","even","13573","NA","NA","52118","50262","52080","24781","10158","NA","NA","NA","10203","NA","NA","52235","52654","52234","NA","Flanker test","15","7668","16","yes","1024"
"94.1176470588","94.1176470588","478.294117647","478.294117647","black","no","xpyriment","legacy","legacy","0","congruent","uniform","1","undefined","1","h","0","0","0","16","16","16","16","0","16","0","NA","0","0","0","16","16","16","NA","09/08/18 23:35:45","1500","The main experiment item","yes","Flankertest.osexp","C:\Users\Knitwitty\AppData\Roaming","no","mono","no","18","no","white","no","yes","768","legacy","16","16","C:/Users/Knitwitty/AppData/Roaming/KB-subject-2.csv","xpyriment","Jazzy James","3.1.9","0","h","NA","h","NA","NA","h","463","NA","3369","NA","NA","463","NA","NA","2","legacy","1024","2","48000","-16","experiment","HHHHH","2","even","13573","NA","NA","54551","52674","54514","24781","10158","NA","NA","NA","10203","NA","NA","54668","55133","54667","NA","Flanker test","16","8131","17","yes","1024"
"88.8888888889","88.8888888889","481.111111111","481.111111111","black","no","xpyriment","legacy","legacy","0","incongruent","uniform","0","undefined","0","h","0","0","0","17","17","17","17","0","17","0","NA","0","0","0","17","17","17","NA","09/08/18 23:35:45","1500","The main experiment item","yes","Flankertest.osexp","C:\Users\Knitwitty\AppData\Roaming","no","mono","no","18","no","white","no","yes","768","legacy","17","17","C:/Users/Knitwitty/AppData/Roaming/KB-subject-2.csv","xpyriment","Jazzy James","3.1.9","0","s","NA","h","NA","NA","s","529","NA","3369","NA","NA","529","NA","NA","2","legacy","1024","2","48000","-16","experiment","SSHSS","2","even","13573","NA","NA","57029","55152","56980","24781","10158","NA","NA","NA","10203","NA","NA","57147","57678","57146","NA","Flanker test","16","8660","18","yes","1024"
"89.4736842105","89.4736842105","487.736842105","487.736842105","black","no","xpyriment","legacy","legacy","0","incongruent","uniform","1","undefined","1","s","0","0","0","18","18","18","18","0","18","0","NA","0","0","0","18","18","18","NA","09/08/18 23:35:45","1500","The main experiment item","yes","Flankertest.osexp","C:\Users\Knitwitty\AppData\Roaming","no","mono","no","18","no","white","no","yes","768","legacy","18","18","C:/Users/Knitwitty/AppData/Roaming/KB-subject-2.csv","xpyriment","Jazzy James","3.1.9","0","s","NA","h","NA","NA","s","607","NA","3369","NA","NA","607","NA","NA","2","legacy","1024","2","48000","-16","experiment","HHSHH","2","even","13573","NA","NA","60070","58223","60035","57716","10158","NA","NA","NA","10203","NA","NA","60188","60798","60187","NA","Flanker test","17","9267","19","yes","1024"
"85","85","489.35","489.35","black","no","xpyriment","legacy","legacy","0","congruent","uniform","0","undefined","0","s","0","0","0","19","19","19","19","0","19","0","NA","0","0","0","19","19","19","NA","09/08/18 23:35:45","1500","The main experiment item","yes","Flankertest.osexp","C:\Users\Knitwitty\AppData\Roaming","no","mono","no","18","no","white","no","yes","768","legacy","19","19","C:/Users/Knitwitty/AppData/Roaming/KB-subject-2.csv","xpyriment","Jazzy James","3.1.9","0","h","NA","h","NA","NA","h","520","NA","3369","NA","NA","520","NA","NA","2","legacy","1024","2","48000","-16","experiment","SSSSS","2","even","13573","NA","NA","62679","60821","62643","57716","10158","NA","NA","NA","10203","NA","NA","62796","63318","62796","NA","Flanker test","17","9787","20","yes","1024"
"85.7142857143","85.7142857143","494.238095238","494.238095238","black","no","xpyriment","legacy","legacy","0","incongruent","uniform","1","undefined","1","s","0","0","0","20","20","20","20","0","20","0","NA","0","0","0","20","20","20","NA","09/08/18 23:35:45","1500","The main experiment item","yes","Flankertest.osexp","C:\Users\Knitwitty\AppData\Roaming","no","mono","no","18","no","white","no","yes","768","legacy","20","20","C:/Users/Knitwitty/AppData/Roaming/KB-subject-2.csv","xpyriment","Jazzy James","3.1.9","0","s","NA","h","NA","NA","s","592","NA","3369","NA","NA","592","NA","NA","2","legacy","1024","2","48000","-16","experiment","HHSHH","2","even","13573","NA","NA","65685","63842","65649","63336","10158","NA","NA","NA","10203","NA","NA","65803","66398","65802","NA","Flanker test","18","10379","21","yes","1024"
"86.3636363636","86.3636363636","494.727272727","494.727272727","black","no","xpyriment","legacy","legacy","0","congruent","uniform","1","undefined","1","s","0","0","0","21","21","21","21","0","21","0","NA","0","0","0","21","21","21","NA","09/08/18 23:35:45","1500","The main experiment item","yes","Flankertest.osexp","C:\Users\Knitwitty\AppData\Roaming","no","mono","no","18","no","white","no","yes","768","legacy","21","21","C:/Users/Knitwitty/AppData/Roaming/KB-subject-2.csv","xpyriment","Jazzy James","3.1.9","0","s","NA","h","NA","NA","s","505","NA","3369","NA","NA","505","NA","NA","2","legacy","1024","2","48000","-16","experiment","SSSSS","2","even","13573","NA","NA","68285","66421","68241","63336","10158","NA","NA","NA","10203","NA","NA","68403","68910","68403","NA","Flanker test","19","10884","22","yes","1024"
"86.9565217391","86.9565217391","502.47826087","502.47826087","black","no","xpyriment","legacy","legacy","0","incongruent","uniform","1","undefined","1","s","0","0","0","22","22","22","22","0","22","0","NA","0","0","0","22","22","22","NA","09/08/18 23:35:45","1500","The main experiment item","yes","Flankertest.osexp","C:\Users\Knitwitty\AppData\Roaming","no","mono","no","18","no","white","no","yes","768","legacy","22","22","C:/Users/Knitwitty/AppData/Roaming/KB-subject-2.csv","xpyriment","Jazzy James","3.1.9","0","s","NA","h","NA","NA","s","673","NA","3369","NA","NA","673","NA","NA","2","legacy","1024","2","48000","-16","experiment","HHSHH","2","even","13573","NA","NA","70782","68929","70745","63336","10158","NA","NA","NA","10203","NA","NA","70899","71574","70898","NA","Flanker test","20","11557","23","yes","1024"
"87.5","87.5","500.166666667","500.166666667","black","no","xpyriment","legacy","legacy","0","congruent","uniform","1","undefined","1","h","0","0","0","23","23","23","23","0","23","0","NA","0","0","0","23","23","23","NA","09/08/18 23:35:45","1500","The main experiment item","yes","Flankertest.osexp","C:\Users\Knitwitty\AppData\Roaming","no","mono","no","18","no","white","no","yes","768","legacy","23","23","C:/Users/Knitwitty/AppData/Roaming/KB-subject-2.csv","xpyriment","Jazzy James","3.1.9","0","h","NA","h","NA","NA","h","447","NA","3369","NA","NA","447","NA","NA","2","legacy","1024","2","48000","-16","experiment","HHHHH","2","even","13573","NA","NA","73457","71592","73421","63336","10158","NA","NA","NA","10203","NA","NA","73573","74022","73573","NA","Flanker test","21","12004","24","yes","1024"
"88","88","503.8","503.8","black","no","xpyriment","legacy","legacy","0","incongruent","uniform","1","undefined","1","s","0","0","0","24","24","24","24","0","24","0","NA","0","0","0","24","24","24","NA","09/08/18 23:35:45","1500","The main experiment item","yes","Flankertest.osexp","C:\Users\Knitwitty\AppData\Roaming","no","mono","no","18","no","white","no","yes","768","legacy","24","24","C:/Users/Knitwitty/AppData/Roaming/KB-subject-2.csv","xpyriment","Jazzy James","3.1.9","0","s","NA","h","NA","NA","s","591","NA","3369","NA","NA","591","NA","NA","2","legacy","1024","2","48000","-16","experiment","HHSHH","2","even","13573","NA","NA","75904","74045","75868","63336","10158","NA","NA","NA","10203","NA","NA","76021","76614","76020","NA","Flanker test","22","12595","25","yes","1024"
"88.4615384615","88.4615384615","504.115384615","504.115384615","black","no","xpyriment","legacy","legacy","0","incongruent","uniform","1","undefined","1","h","0","0","0","25","25","25","25","0","25","0","NA","0","0","0","25","25","25","NA","09/08/18 23:35:45","1500","The main experiment item","yes","Flankertest.osexp","C:\Users\Knitwitty\AppData\Roaming","no","mono","no","18","no","white","no","yes","768","legacy","25","25","C:/Users/Knitwitty/AppData/Roaming/KB-subject-2.csv","xpyriment","Jazzy James","3.1.9","0","h","NA","h","NA","NA","h","512","NA","3369","NA","NA","512","NA","NA","2","legacy","1024","2","48000","-16","experiment","SSHSS","2","even","13573","NA","NA","78477","76637","78441","63336","10158","NA","NA","NA","10203","NA","NA","78595","79110","78594","NA","Flanker test","23","13107","26","yes","1024"
"88.8888888889","88.8888888889","503.62962963","503.62962963","black","no","xpyriment","legacy","legacy","0","congruent","uniform","1","undefined","1","s","0","0","0","26","26","26","26","0","26","0","NA","0","0","0","26","26","26","NA","09/08/18 23:35:45","1500","The main experiment item","yes","Flankertest.osexp","C:\Users\Knitwitty\AppData\Roaming","no","mono","no","18","no","white","no","yes","768","legacy","26","26","C:/Users/Knitwitty/AppData/Roaming/KB-subject-2.csv","xpyriment","Jazzy James","3.1.9","0","s","NA","h","NA","NA","s","491","NA","3369","NA","NA","491","NA","NA","2","legacy","1024","2","48000","-16","experiment","SSSSS","2","even","13573","NA","NA","80995","79133","80946","63336","10158","NA","NA","NA","10203","NA","NA","81113","81606","81112","NA","Flanker test","24","13598","27","yes","1024"
"89.2857142857","89.2857142857","502.678571429","502.678571429","black","no","xpyriment","legacy","legacy","0","congruent","uniform","1","undefined","1","s","0","0","0","27","27","27","27","0","27","0","NA","0","0","0","27","27","27","NA","09/08/18 23:35:45","1500","The main experiment item","yes","Flankertest.osexp","C:\Users\Knitwitty\AppData\Roaming","no","mono","no","18","no","white","no","yes","768","legacy","27","27","C:/Users/Knitwitty/AppData/Roaming/KB-subject-2.csv","xpyriment","Jazzy James","3.1.9","0","s","NA","h","NA","NA","s","477","NA","3369","NA","NA","477","NA","NA","2","legacy","1024","2","48000","-16","experiment","SSSSS","2","even","13573","NA","NA","83530","81658","83494","63336","10158","NA","NA","NA","10203","NA","NA","83647","84126","83647","NA","Flanker test","25","14075","28","yes","1024"
"89.6551724138","89.6551724138","499.862068966","499.862068966","black","no","xpyriment","legacy","legacy","0","congruent","uniform","1","undefined","1","h","0","0","0","28","28","28","28","0","28","0","NA","0","0","0","28","28","28","NA","09/08/18 23:35:45","1500","The main experiment item","yes","Flankertest.osexp","C:\Users\Knitwitty\AppData\Roaming","no","mono","no","18","no","white","no","yes","768","legacy","28","28","C:/Users/Knitwitty/AppData/Roaming/KB-subject-2.csv","xpyriment","Jazzy James","3.1.9","0","h","NA","h","NA","NA","h","421","NA","3369","NA","NA","421","NA","NA","2","legacy","1024","2","48000","-16","experiment","HHHHH","2","even","13573","NA","NA","86049","84148","86006","63336","10158","NA","NA","NA","10203","NA","NA","86166","86590","86165","NA","Flanker test","26","14496","29","yes","1024"
"90","90","498.366666667","498.366666667","black","no","xpyriment","legacy","legacy","0","congruent","uniform","1","undefined","1","h","0","0","0","29","29","29","29","0","29","0","NA","0","0","0","29","29","29","NA","09/08/18 23:35:45","1500","The main experiment item","yes","Flankertest.osexp","C:\Users\Knitwitty\AppData\Roaming","no","mono","no","18","no","white","no","yes","768","legacy","29","29","C:/Users/Knitwitty/AppData/Roaming/KB-subject-2.csv","xpyriment","Jazzy James","3.1.9","0","h","NA","h","NA","NA","h","455","NA","3369","NA","NA","455","NA","NA","2","legacy","1024","2","48000","-16","experiment","HHHHH","2","even","13573","NA","NA","88472","86614","88432","63336","10158","NA","NA","NA","10203","NA","NA","88589","89046","88588","NA","Flanker test","27","14951","30","yes","1024"
"90.3225806452","90.3225806452","494.935483871","494.935483871","black","no","xpyriment","legacy","legacy","0","congruent","uniform","1","undefined","1","h","0","0","0","30","30","30","30","0","30","0","NA","0","0","0","30","30","30","NA","09/08/18 23:35:45","1500","The main experiment item","yes","Flankertest.osexp","C:\Users\Knitwitty\AppData\Roaming","no","mono","no","18","no","white","no","yes","768","legacy","30","30","C:/Users/Knitwitty/AppData/Roaming/KB-subject-2.csv","xpyriment","Jazzy James","3.1.9","0","h","NA","h","NA","NA","h","392","NA","3369","NA","NA","392","NA","NA","2","legacy","1024","2","48000","-16","experiment","HHHHH","2","even","13573","NA","NA","90957","89064","90911","63336","10158","NA","NA","NA","10203","NA","NA","91075","91470","91075","NA","Flanker test","28","15343","31","yes","1024"
"90.625","90.625","493.46875","493.46875","black","no","xpyriment","legacy","legacy","0","congruent","uniform","1","undefined","1","s","0","0","0","31","31","31","31","0","31","0","NA","0","0","0","31","31","31","NA","09/08/18 23:35:45","1500","The main experiment item","yes","Flankertest.osexp","C:\Users\Knitwitty\AppData\Roaming","no","mono","no","18","no","white","no","yes","768","legacy","31","31","C:/Users/Knitwitty/AppData/Roaming/KB-subject-2.csv","xpyriment","Jazzy James","3.1.9","0","s","NA","h","NA","NA","s","448","NA","3369","NA","NA","448","NA","NA","2","legacy","1024","2","48000","-16","experiment","SSSSS","2","even","13573","NA","NA","93357","91494","93322","63336","10158","NA","NA","NA","10203","NA","NA","93476","93926","93475","NA","Flanker test","29","15791","32","yes","1024"
"90.9090909091","90.9090909091","493.696969697","493.696969697","black","no","xpyriment","legacy","legacy","0","incongruent","uniform","1","undefined","1","h","0","0","0","32","32","32","32","0","32","0","NA","0","0","0","32","32","32","NA","09/08/18 23:35:45","1500","The main experiment item","yes","Flankertest.osexp","C:\Users\Knitwitty\AppData\Roaming","no","mono","no","18","no","white","no","yes","768","legacy","32","32","C:/Users/Knitwitty/AppData/Roaming/KB-subject-2.csv","xpyriment","Jazzy James","3.1.9","0","h","NA","h","NA","NA","h","501","NA","3369","NA","NA","501","NA","NA","2","legacy","1024","2","48000","-16","experiment","SSHSS","2","even","13573","NA","NA","95800","93945","95759","63336","10158","NA","NA","NA","10203","NA","NA","95918","96422","95917","NA","Flanker test","30","16292","33","yes","1024"
"91.1764705882","91.1764705882","493.617647059","493.617647059","black","no","xpyriment","legacy","legacy","0","congruent","uniform","1","undefined","1","s","0","0","0","33","33","33","33","0","33","0","NA","0","0","0","33","33","33","NA","09/08/18 23:35:45","1500","The main experiment item","yes","Flankertest.osexp","C:\Users\Knitwitty\AppData\Roaming","no","mono","no","18","no","white","no","yes","768","legacy","33","33","C:/Users/Knitwitty/AppData/Roaming/KB-subject-2.csv","xpyriment","Jazzy James","3.1.9","0","s","NA","h","NA","NA","s","491","NA","3369","NA","NA","491","NA","NA","2","legacy","1024","2","48000","-16","experiment","SSSSS","2","even","13573","NA","NA","98316","96447","98278","63336","10158","NA","NA","NA","10203","NA","NA","98433","98927","98432","NA","Flanker test","31","16783","34","yes","1024"
"91.4285714286","91.4285714286","494.171428571","494.171428571","black","no","xpyriment","legacy","legacy","0","incongruent","uniform","1","undefined","1","s","0","0","0","34","34","34","34","0","34","0","NA","0","0","0","34","34","34","NA","09/08/18 23:35:45","1500","The main experiment item","yes","Flankertest.osexp","C:\Users\Knitwitty\AppData\Roaming","no","mono","no","18","no","white","no","yes","768","legacy","34","34","C:/Users/Knitwitty/AppData/Roaming/KB-subject-2.csv","xpyriment","Jazzy James","3.1.9","0","s","NA","h","NA","NA","s","513","NA","3369","NA","NA","513","NA","NA","2","legacy","1024","2","48000","-16","experiment","HHSHH","2","even","13573","NA","NA","100781","98946","100747","63336","10158","NA","NA","NA","10203","NA","NA","100899","101414","100898","NA","Flanker test","32","17296","35","yes","1024"
"91.6666666667","91.6666666667","494.222222222","494.222222222","black","no","xpyriment","legacy","legacy","0","incongruent","uniform","1","undefined","1","h","0","0","0","35","35","35","35","0","35","0","NA","0","0","0","35","35","35","NA","09/08/18 23:35:45","1500","The main experiment item","yes","Flankertest.osexp","C:\Users\Knitwitty\AppData\Roaming","no","mono","no","18","no","white","no","yes","768","legacy","35","35","C:/Users/Knitwitty/AppData/Roaming/KB-subject-2.csv","xpyriment","Jazzy James","3.1.9","0","h","NA","h","NA","NA","h","496","NA","3369","NA","NA","496","NA","NA","2","legacy","1024","2","48000","-16","experiment","SSHSS","2","even","13573","NA","NA","103295","101438","103260","63336","10158","NA","NA","NA","10203","NA","NA","103412","103911","103412","NA","Flanker test","33","17792","36","yes","1024"
"91.8918918919","91.8918918919","492.405405405","492.405405405","black","no","xpyriment","legacy","legacy","0","congruent","uniform","1","undefined","1","h","0","0","0","36","36","36","36","0","36","0","NA","0","0","0","36","36","36","NA","09/08/18 23:35:45","1500","The main experiment item","yes","Flankertest.osexp","C:\Users\Knitwitty\AppData\Roaming","no","mono","no","18","no","white","no","yes","768","legacy","36","36","C:/Users/Knitwitty/AppData/Roaming/KB-subject-2.csv","xpyriment","Jazzy James","3.1.9","0","h","NA","h","NA","NA","h","427","NA","3369","NA","NA","427","NA","NA","2","legacy","1024","2","48000","-16","experiment","HHHHH","2","even","13573","NA","NA","105780","103928","105746","63336","10158","NA","NA","NA","10203","NA","NA","105897","106327","105896","NA","Flanker test","34","18219","37","yes","1024"
"92.1052631579","92.1052631579","490.5","490.5","black","no","xpyriment","legacy","legacy","0","congruent","uniform","1","undefined","1","h","0","0","0","37","37","37","37","0","37","0","NA","0","0","0","37","37","37","NA","09/08/18 23:35:45","1500","The main experiment item","yes","Flankertest.osexp","C:\Users\Knitwitty\AppData\Roaming","no","mono","no","18","no","white","no","yes","768","legacy","37","37","C:/Users/Knitwitty/AppData/Roaming/KB-subject-2.csv","xpyriment","Jazzy James","3.1.9","0","h","NA","h","NA","NA","h","420","NA","3369","NA","NA","420","NA","NA","2","legacy","1024","2","48000","-16","experiment","HHHHH","2","even","13573","NA","NA","108242","106379","108207","63336","10158","NA","NA","NA","10203","NA","NA","108359","108782","108358","NA","Flanker test","35","18639","38","yes","1024"
"92.3076923077","92.3076923077","489.461538462","489.461538462","black","no","xpyriment","legacy","legacy","0","incongruent","uniform","1","undefined","1","s","0","0","0","38","38","38","38","0","38","0","NA","0","0","0","38","38","38","NA","09/08/18 23:35:45","1500","The main experiment item","yes","Flankertest.osexp","C:\Users\Knitwitty\AppData\Roaming","no","mono","no","18","no","white","no","yes","768","legacy","38","38","C:/Users/Knitwitty/AppData/Roaming/KB-subject-2.csv","xpyriment","Jazzy James","3.1.9","0","s","NA","h","NA","NA","s","450","NA","3369","NA","NA","450","NA","NA","2","legacy","1024","2","48000","-16","experiment","HHSHH","2","even","13573","NA","NA","110701","108799","110666","63336","10158","NA","NA","NA","10203","NA","NA","110818","111271","110818","NA","Flanker test","36","19089","39","yes","1024"
"92.5","92.5","492.525","492.525","black","no","xpyriment","legacy","legacy","0","incongruent","uniform","1","undefined","1","h","0","0","0","39","39","39","39","0","39","0","NA","0","0","0","39","39","39","NA","09/08/18 23:35:45","1500","The main experiment item","yes","Flankertest.osexp","C:\Users\Knitwitty\AppData\Roaming","no","mono","no","18","no","white","no","yes","768","legacy","39","39","C:/Users/Knitwitty/AppData/Roaming/KB-subject-2.csv","xpyriment","Jazzy James","3.1.9","0","h","NA","h","NA","NA","h","612","NA","3369","NA","NA","612","NA","NA","2","legacy","1024","2","48000","-16","experiment","SSHSS","2","even","13573","NA","NA","113147","111289","113113","63336","10158","NA","NA","NA","10203","NA","NA","113264","113879","113264","NA","Flanker test","37","19701","40","yes","1024"
"92.6829268293","92.6829268293","490.731707317","490.731707317","black","no","xpyriment","legacy","legacy","0","congruent","uniform","1","undefined","1","s","0","0","0","40","40","40","40","0","40","0","NA","0","0","0","40","40","40","NA","09/08/18 23:35:45","1500","The main experiment item","yes","Flankertest.osexp","C:\Users\Knitwitty\AppData\Roaming","no","mono","no","18","no","white","no","yes","768","legacy","40","40","C:/Users/Knitwitty/AppData/Roaming/KB-subject-2.csv","xpyriment","Jazzy James","3.1.9","0","s","NA","h","NA","NA","s","419","NA","3369","NA","NA","419","NA","NA","2","legacy","1024","2","48000","-16","experiment","SSSSS","2","even","13573","NA","NA","115749","113897","115715","63336","10158","NA","NA","NA","10203","NA","NA","115865","116287","115865","NA","Flanker test","38","20120","41","yes","1024"
"92.8571428571","92.8571428571","494.071428571","494.071428571","black","no","xpyriment","legacy","legacy","0","incongruent","uniform","1","undefined","1","s","0","0","0","41","41","41","41","0","41","0","NA","0","0","0","41","41","41","NA","09/08/18 23:35:45","1500","The main experiment item","yes","Flankertest.osexp","C:\Users\Knitwitty\AppData\Roaming","no","mono","no","18","no","white","no","yes","768","legacy","41","41","C:/Users/Knitwitty/AppData/Roaming/KB-subject-2.csv","xpyriment","Jazzy James","3.1.9","0","s","NA","h","NA","NA","s","631","NA","3369","NA","NA","631","NA","NA","2","legacy","1024","2","48000","-16","experiment","HHSHH","2","even","13573","NA","NA","118184","116309","118150","63336","10158","NA","NA","NA","10203","NA","NA","118301","118935","118300","NA","Flanker test","39","20751","42","yes","1024"
"93.023255814","93.023255814","492.186046512","492.186046512","black","no","xpyriment","legacy","legacy","0","incongruent","uniform","1","undefined","1","h","0","0","0","42","42","42","42","0","42","0","NA","0","0","0","42","42","42","NA","09/08/18 23:35:45","1500","The main experiment item","yes","Flankertest.osexp","C:\Users\Knitwitty\AppData\Roaming","no","mono","no","18","no","white","no","yes","768","legacy","42","42","C:/Users/Knitwitty/AppData/Roaming/KB-subject-2.csv","xpyriment","Jazzy James","3.1.9","0","h","NA","h","NA","NA","h","413","NA","3369","NA","NA","413","NA","NA","2","legacy","1024","2","48000","-16","experiment","SSHSS","2","even","13573","NA","NA","120818","118953","120776","63336","10158","NA","NA","NA","10203","NA","NA","120935","121351","120935","NA","Flanker test","40","21164","43","yes","1024"
"93.1818181818","93.1818181818","492.159090909","492.159090909","black","no","xpyriment","legacy","legacy","0","incongruent","uniform","1","undefined","1","s","0","0","0","43","43","43","43","0","43","0","NA","0","0","0","43","43","43","NA","09/08/18 23:35:45","1500","The main experiment item","yes","Flankertest.osexp","C:\Users\Knitwitty\AppData\Roaming","no","mono","no","18","no","white","no","yes","768","legacy","43","43","C:/Users/Knitwitty/AppData/Roaming/KB-subject-2.csv","xpyriment","Jazzy James","3.1.9","0","s","NA","h","NA","NA","s","491","NA","3369","NA","NA","491","NA","NA","2","legacy","1024","2","48000","-16","experiment","HHSHH","2","even","13573","NA","NA","123228","121373","123191","63336","10158","NA","NA","NA","10203","NA","NA","123345","123840","123345","NA","Flanker test","41","21655","44","yes","1024"
"93.3333333333","93.3333333333","489.955555556","489.955555556","black","no","xpyriment","legacy","legacy","0","congruent","uniform","1","undefined","1","h","0","0","0","44","44","44","44","0","44","0","NA","0","0","0","44","44","44","NA","09/08/18 23:35:45","1500","The main experiment item","yes","Flankertest.osexp","C:\Users\Knitwitty\AppData\Roaming","no","mono","no","18","no","white","no","yes","768","legacy","44","44","C:/Users/Knitwitty/AppData/Roaming/KB-subject-2.csv","xpyriment","Jazzy James","3.1.9","0","h","NA","h","NA","NA","h","393","NA","3369","NA","NA","393","NA","NA","2","legacy","1024","2","48000","-16","experiment","HHHHH","2","even","13573","NA","NA","125710","123856","125669","63336","10158","NA","NA","NA","10203","NA","NA","125827","126223","125826","NA","Flanker test","42","22048","45","yes","1024"
"93.4782608696","93.4782608696","488.782608696","488.782608696","black","no","xpyriment","legacy","legacy","0","congruent","uniform","1","undefined","1","h","0","0","0","45","45","45","45","0","45","0","NA","0","0","0","45","45","45","NA","09/08/18 23:35:45","1500","The main experiment item","yes","Flankertest.osexp","C:\Users\Knitwitty\AppData\Roaming","no","mono","no","18","no","white","no","yes","768","legacy","45","45","C:/Users/Knitwitty/AppData/Roaming/KB-subject-2.csv","xpyriment","Jazzy James","3.1.9","0","h","NA","h","NA","NA","h","436","NA","3369","NA","NA","436","NA","NA","2","legacy","1024","2","48000","-16","experiment","HHHHH","2","even","13573","NA","NA","128114","126242","128074","63336","10158","NA","NA","NA","10203","NA","NA","128231","128670","128230","NA","Flanker test","43","22484","46","yes","1024"
"93.6170212766","93.6170212766","486","486","black","no","xpyriment","legacy","legacy","0","congruent","uniform","1","undefined","1","h","0","0","0","46","46","46","46","0","46","0","NA","0","0","0","46","46","46","NA","09/08/18 23:35:45","1500","The main experiment item","yes","Flankertest.osexp","C:\Users\Knitwitty\AppData\Roaming","no","mono","no","18","no","white","no","yes","768","legacy","46","46","C:/Users/Knitwitty/AppData/Roaming/KB-subject-2.csv","xpyriment","Jazzy James","3.1.9","0","h","NA","h","NA","NA","h","358","NA","3369","NA","NA","358","NA","NA","2","legacy","1024","2","48000","-16","experiment","HHHHH","2","even","13573","NA","NA","130552","128697","130518","63336","10158","NA","NA","NA","10203","NA","NA","130669","131031","130668","NA","Flanker test","44","22842","47","yes","1024"
"93.75","93.75","484.895833333","484.895833333","black","no","xpyriment","legacy","legacy","0","incongruent","uniform","1","undefined","1","s","0","0","0","47","47","47","47","0","47","0","NA","0","0","0","47","47","47","NA","09/08/18 23:35:45","1500","The main experiment item","yes","Flankertest.osexp","C:\Users\Knitwitty\AppData\Roaming","no","mono","no","18","no","white","no","yes","768","legacy","47","47","C:/Users/Knitwitty/AppData/Roaming/KB-subject-2.csv","xpyriment","Jazzy James","3.1.9","0","s","NA","h","NA","NA","s","433","NA","3369","NA","NA","433","NA","NA","2","legacy","1024","2","48000","-16","experiment","HHSHH","2","even","13573","NA","NA","132894","131055","132858","63336","10158","NA","NA","NA","10203","NA","NA","133011","133447","133010","NA","Flanker test","45","23275","48","yes","1024"
"93.8775510204","93.8775510204","483.979591837","483.979591837","black","no","xpyriment","legacy","legacy","0","congruent","uniform","1","undefined","1","h","0","0","0","48","48","48","48","0","48","0","NA","0","0","0","48","48","48","NA","09/08/18 23:35:45","1500","The main experiment item","yes","Flankertest.osexp","C:\Users\Knitwitty\AppData\Roaming","no","mono","no","18","no","white","no","yes","768","legacy","48","48","C:/Users/Knitwitty/AppData/Roaming/KB-subject-2.csv","xpyriment","Jazzy James","3.1.9","0","h","NA","h","NA","NA","h","440","NA","3369","NA","NA","440","NA","NA","2","legacy","1024","2","48000","-16","experiment","HHHHH","2","even","13573","NA","NA","135317","133466","135277","63336","10158","NA","NA","NA","10203","NA","NA","135435","135879","135434","NA","Flanker test","46","23715","49","yes","1024"
"94","94","483.64","483.64","black","no","xpyriment","legacy","legacy","0","incongruent","uniform","1","undefined","1","h","0","0","0","49","49","49","49","0","49","0","NA","0","0","0","49","49","49","NA","09/08/18 23:35:45","1500","The main experiment item","yes","Flankertest.osexp","C:\Users\Knitwitty\AppData\Roaming","no","mono","no","18","no","white","no","yes","768","legacy","49","49","C:/Users/Knitwitty/AppData/Roaming/KB-subject-2.csv","xpyriment","Jazzy James","3.1.9","0","h","NA","h","NA","NA","h","467","NA","3369","NA","NA","467","NA","NA","2","legacy","1024","2","48000","-16","experiment","SSHSS","2","even","13573","NA","NA","137875","136006","137819","63336","10158","NA","NA","NA","10203","NA","NA","137993","138463","137993","NA","Flanker test","47","24182","50","yes","1024"
"92.1568627451","92.1568627451","482.705882353","482.705882353","black","no","xpyriment","legacy","legacy","0","incongruent","uniform","0","undefined","0","s","0","0","0","50","50","50","50","0","50","0","NA","0","0","0","50","50","50","NA","09/08/18 23:35:45","1500","The main experiment item","yes","Flankertest.osexp","C:\Users\Knitwitty\AppData\Roaming","no","mono","no","18","no","white","no","yes","768","legacy","50","50","C:/Users/Knitwitty/AppData/Roaming/KB-subject-2.csv","xpyriment","Jazzy James","3.1.9","0","h","NA","h","NA","NA","h","436","NA","3369","NA","NA","436","NA","NA","2","legacy","1024","2","48000","-16","experiment","HHSHH","2","even","13573","NA","NA","140331","138487","140297","63336","10158","NA","NA","NA","10203","NA","NA","140448","140887","140447","NA","Flanker test","47","24618","51","yes","1024"
"92.3076923077","92.3076923077","483.25","483.25","black","no","xpyriment","legacy","legacy","0","incongruent","uniform","1","undefined","1","h","0","0","0","51","51","51","51","0","51","0","NA","0","0","0","51","51","51","NA","09/08/18 23:35:45","1500","The main experiment item","yes","Flankertest.osexp","C:\Users\Knitwitty\AppData\Roaming","no","mono","no","18","no","white","no","yes","768","legacy","51","51","C:/Users/Knitwitty/AppData/Roaming/KB-subject-2.csv","xpyriment","Jazzy James","3.1.9","0","h","NA","h","NA","NA","h","511","NA","3369","NA","NA","511","NA","NA","2","legacy","1024","2","48000","-16","experiment","SSHSS","2","even","13573","NA","NA","143272","141429","143226","140922","10158","NA","NA","NA","10203","NA","NA","143389","143903","143388","NA","Flanker test","48","25129","52","yes","1024"
"92.4528301887","92.4528301887","480.773584906","480.773584906","black","no","xpyriment","legacy","legacy","0","incongruent","uniform","1","undefined","1","s","0","0","0","52","52","52","52","0","52","0","NA","0","0","0","52","52","52","NA","09/08/18 23:35:45","1500","The main experiment item","yes","Flankertest.osexp","C:\Users\Knitwitty\AppData\Roaming","no","mono","no","18","no","white","no","yes","768","legacy","52","52","C:/Users/Knitwitty/AppData/Roaming/KB-subject-2.csv","xpyriment","Jazzy James","3.1.9","0","s","NA","h","NA","NA","s","352","NA","3369","NA","NA","352","NA","NA","2","legacy","1024","2","48000","-16","experiment","HHSHH","2","even","13573","NA","NA","145766","143921","145730","140922","10158","NA","NA","NA","10203","NA","NA","145883","146238","145882","NA","Flanker test","49","25481","53","yes","1024"
"92.5925925926","92.5925925926","480.666666667","480.666666667","black","no","xpyriment","legacy","legacy","0","incongruent","uniform","1","undefined","1","h","0","0","0","53","53","53","53","0","53","0","NA","0","0","0","53","53","53","NA","09/08/18 23:35:45","1500","The main experiment item","yes","Flankertest.osexp","C:\Users\Knitwitty\AppData\Roaming","no","mono","no","18","no","white","no","yes","768","legacy","53","53","C:/Users/Knitwitty/AppData/Roaming/KB-subject-2.csv","xpyriment","Jazzy James","3.1.9","0","h","NA","h","NA","NA","h","475","NA","3369","NA","NA","475","NA","NA","2","legacy","1024","2","48000","-16","experiment","SSHSS","2","even","13573","NA","NA","148099","146257","148058","140922","10158","NA","NA","NA","10203","NA","NA","148216","148694","148215","NA","Flanker test","50","25956","54","yes","1024"
"92.7272727273","92.7272727273","480.763636364","480.763636364","black","no","xpyriment","legacy","legacy","0","congruent","uniform","1","undefined","1","s","0","0","0","54","54","54","54","0","54","0","NA","0","0","0","54","54","54","NA","09/08/18 23:35:45","1500","The main experiment item","yes","Flankertest.osexp","C:\Users\Knitwitty\AppData\Roaming","no","mono","no","18","no","white","no","yes","768","legacy","54","54","C:/Users/Knitwitty/AppData/Roaming/KB-subject-2.csv","xpyriment","Jazzy James","3.1.9","0","s","NA","h","NA","NA","s","486","NA","3369","NA","NA","486","NA","NA","2","legacy","1024","2","48000","-16","experiment","SSSSS","2","even","13573","NA","NA","150545","148717","150510","140922","10158","NA","NA","NA","10203","NA","NA","150662","151152","150662","NA","Flanker test","51","26442","55","yes","1024"
"92.8571428571","92.8571428571","480.339285714","480.339285714","black","no","xpyriment","legacy","legacy","0","incongruent","uniform","1","undefined","1","s","0","0","0","55","55","55","55","0","55","0","NA","0","0","0","55","55","55","NA","09/08/18 23:35:45","1500","The main experiment item","yes","Flankertest.osexp","C:\Users\Knitwitty\AppData\Roaming","no","mono","no","18","no","white","no","yes","768","legacy","55","55","C:/Users/Knitwitty/AppData/Roaming/KB-subject-2.csv","xpyriment","Jazzy James","3.1.9","0","s","NA","h","NA","NA","s","457","NA","3369","NA","NA","457","NA","NA","2","legacy","1024","2","48000","-16","experiment","HHSHH","2","even","13573","NA","NA","153014","151171","152971","140922","10158","NA","NA","NA","10203","NA","NA","153130","153591","153130","NA","Flanker test","52","26899","56","yes","1024"
"92.9824561404","92.9824561404","480.315789474","480.315789474","black","no","xpyriment","legacy","legacy","0","incongruent","uniform","1","undefined","1","s","0","0","0","56","56","56","56","0","56","0","NA","0","0","0","56","56","56","NA","09/08/18 23:35:45","1500","The main experiment item","yes","Flankertest.osexp","C:\Users\Knitwitty\AppData\Roaming","no","mono","no","18","no","white","no","yes","768","legacy","56","56","C:/Users/Knitwitty/AppData/Roaming/KB-subject-2.csv","xpyriment","Jazzy James","3.1.9","0","s","NA","h","NA","NA","s","479","NA","3369","NA","NA","479","NA","NA","2","legacy","1024","2","48000","-16","experiment","HHSHH","2","even","13573","NA","NA","155456","153613","155421","140922","10158","NA","NA","NA","10203","NA","NA","155573","156056","155572","NA","Flanker test","53","27378","57","yes","1024"
"93.1034482759","93.1034482759","477.965517241","477.965517241","black","no","xpyriment","legacy","legacy","0","incongruent","uniform","1","undefined","1","h","0","0","0","57","57","57","57","0","57","0","NA","0","0","0","57","57","57","NA","09/08/18 23:35:45","1500","The main experiment item","yes","Flankertest.osexp","C:\Users\Knitwitty\AppData\Roaming","no","mono","no","18","no","white","no","yes","768","legacy","57","57","C:/Users/Knitwitty/AppData/Roaming/KB-subject-2.csv","xpyriment","Jazzy James","3.1.9","0","h","NA","h","NA","NA","h","344","NA","3369","NA","NA","344","NA","NA","2","legacy","1024","2","48000","-16","experiment","SSHSS","2","even","13573","NA","NA","157911","156078","157878","140922","10158","NA","NA","NA","10203","NA","NA","158028","158375","158027","NA","Flanker test","54","27722","58","yes","1024"
"93.2203389831","93.2203389831","478.389830508","478.389830508","black","no","xpyriment","legacy","legacy","0","congruent","uniform","1","undefined","1","s","0","0","0","58","58","58","58","0","58","0","NA","0","0","0","58","58","58","NA","09/08/18 23:35:45","1500","The main experiment item","yes","Flankertest.osexp","C:\Users\Knitwitty\AppData\Roaming","no","mono","no","18","no","white","no","yes","768","legacy","58","58","C:/Users/Knitwitty/AppData/Roaming/KB-subject-2.csv","xpyriment","Jazzy James","3.1.9","0","s","NA","h","NA","NA","s","503","NA","3369","NA","NA","503","NA","NA","2","legacy","1024","2","48000","-16","experiment","SSSSS","2","even","13573","NA","NA","160248","158404","160214","140922","10158","NA","NA","NA","10203","NA","NA","160365","160872","160365","NA","Flanker test","55","28225","59","yes","1024"
"93.3333333333","93.3333333333","478.966666667","478.966666667","black","no","xpyriment","legacy","legacy","0","congruent","uniform","1","undefined","1","h","0","0","0","59","59","59","59","0","59","0","NA","0","0","0","59","59","59","NA","09/08/18 23:35:45","1500","The main experiment item","yes","Flankertest.osexp","C:\Users\Knitwitty\AppData\Roaming","no","mono","no","18","no","white","no","yes","768","legacy","59","59","C:/Users/Knitwitty/AppData/Roaming/KB-subject-2.csv","xpyriment","Jazzy James","3.1.9","0","h","NA","h","NA","NA","h","513","NA","3369","NA","NA","513","NA","NA","2","legacy","1024","2","48000","-16","experiment","HHHHH","2","even","13573","NA","NA","162758","160889","162721","140922","10158","NA","NA","NA","10203","NA","NA","162875","163391","162875","NA","Flanker test","56","28738","60","yes","1024"
"93.4426229508","93.4426229508","479.950819672","479.950819672","black","no","xpyriment","legacy","legacy","0","congruent","uniform","1","undefined","1","s","0","0","0","60","60","60","60","0","60","0","NA","0","0","0","60","60","60","NA","09/08/18 23:35:45","1500","The main experiment item","yes","Flankertest.osexp","C:\Users\Knitwitty\AppData\Roaming","no","mono","no","18","no","white","no","yes","768","legacy","60","60","C:/Users/Knitwitty/AppData/Roaming/KB-subject-2.csv","xpyriment","Jazzy James","3.1.9","0","s","NA","h","NA","NA","s","539","NA","3369","NA","NA","539","NA","NA","2","legacy","1024","2","48000","-16","experiment","SSSSS","2","even","13573","NA","NA","165268","163414","165228","140922","10158","NA","NA","NA","10203","NA","NA","165385","165928","165384","NA","Flanker test","57","29277","61","yes","1024"
"93.5483870968","93.5483870968","479.483870968","479.483870968","black","no","xpyriment","legacy","legacy","0","congruent","uniform","1","undefined","1","h","0","0","0","61","61","61","61","0","61","0","NA","0","0","0","61","61","61","NA","09/08/18 23:35:45","1500","The main experiment item","yes","Flankertest.osexp","C:\Users\Knitwitty\AppData\Roaming","no","mono","no","18","no","white","no","yes","768","legacy","61","61","C:/Users/Knitwitty/AppData/Roaming/KB-subject-2.csv","xpyriment","Jazzy James","3.1.9","0","h","NA","h","NA","NA","h","451","NA","3369","NA","NA","451","NA","NA","2","legacy","1024","2","48000","-16","experiment","HHHHH","2","even","13573","NA","NA","167818","165978","167783","140922","10158","NA","NA","NA","10203","NA","NA","167936","168391","167935","NA","Flanker test","58","29728","62","yes","1024"
"93.6507936508","93.6507936508","477.333333333","477.333333333","black","no","xpyriment","legacy","legacy","0","congruent","uniform","1","undefined","1","s","0","0","0","62","62","62","62","0","62","0","NA","0","0","0","62","62","62","NA","09/08/18 23:35:45","1500","The main experiment item","yes","Flankertest.osexp","C:\Users\Knitwitty\AppData\Roaming","no","mono","no","18","no","white","no","yes","768","legacy","62","62","C:/Users/Knitwitty/AppData/Roaming/KB-subject-2.csv","xpyriment","Jazzy James","3.1.9","0","s","NA","h","NA","NA","s","344","NA","3369","NA","NA","344","NA","NA","2","legacy","1024","2","48000","-16","experiment","SSSSS","2","even","13573","NA","NA","170271","168410","170211","140922","10158","NA","NA","NA","10203","NA","NA","170388","170736","170387","NA","Flanker test","59","30072","63","yes","1024"
"93.75","93.75","476.46875","476.46875","black","no","xpyriment","legacy","legacy","0","congruent","uniform","1","undefined","1","s","0","0","0","63","63","63","63","0","63","0","NA","0","0","0","63","63","63","NA","09/08/18 23:35:45","1500","The main experiment item","yes","Flankertest.osexp","C:\Users\Knitwitty\AppData\Roaming","no","mono","no","18","no","white","no","yes","768","legacy","63","63","C:/Users/Knitwitty/AppData/Roaming/KB-subject-2.csv","xpyriment","Jazzy James","3.1.9","0","s","NA","h","NA","NA","s","422","NA","3369","NA","NA","422","NA","NA","2","legacy","1024","2","48000","-16","experiment","SSSSS","2","even","13573","NA","NA","172633","170760","172593","140922","10158","NA","NA","NA","10203","NA","NA","172750","173176","172749","NA","Flanker test","60","30494","64","yes","1024"
"93.8461538462","93.8461538462","475.553846154","475.553846154","black","no","xpyriment","legacy","legacy","0","congruent","uniform","1","undefined","1","h","0","0","0","64","64","64","64","0","64","0","NA","0","0","0","64","64","64","NA","09/08/18 23:35:45","1500","The main experiment item","yes","Flankertest.osexp","C:\Users\Knitwitty\AppData\Roaming","no","mono","no","18","no","white","no","yes","768","legacy","64","64","C:/Users/Knitwitty/AppData/Roaming/KB-subject-2.csv","xpyriment","Jazzy James","3.1.9","0","h","NA","h","NA","NA","h","417","NA","3369","NA","NA","417","NA","NA","2","legacy","1024","2","48000","-16","experiment","HHHHH","2","even","13573","NA","NA","175045","173195","175011","140922","10158","NA","NA","NA","10203","NA","NA","175162","175584","175161","NA","Flanker test","61","30911","65","yes","1024"
"93.9393939394","93.9393939394","475.484848485","475.484848485","black","no","xpyriment","legacy","legacy","0","incongruent","uniform","1","undefined","1","s","0","0","0","65","65","65","65","0","65","0","NA","0","0","0","65","65","65","NA","09/08/18 23:35:45","1500","The main experiment item","yes","Flankertest.osexp","C:\Users\Knitwitty\AppData\Roaming","no","mono","no","18","no","white","no","yes","768","legacy","65","65","C:/Users/Knitwitty/AppData/Roaming/KB-subject-2.csv","xpyriment","Jazzy James","3.1.9","0","s","NA","h","NA","NA","s","471","NA","3369","NA","NA","471","NA","NA","2","legacy","1024","2","48000","-16","experiment","HHSHH","2","even","13573","NA","NA","177448","175607","177413","140922","10158","NA","NA","NA","10203","NA","NA","177565","178040","177564","NA","Flanker test","62","31382","66","yes","1024"
"94.0298507463","94.0298507463","474.776119403","474.776119403","black","no","xpyriment","legacy","legacy","0","congruent","uniform","1","undefined","1","h","0","0","0","66","66","66","66","0","66","0","NA","0","0","0","66","66","66","NA","09/08/18 23:35:45","1500","The main experiment item","yes","Flankertest.osexp","C:\Users\Knitwitty\AppData\Roaming","no","mono","no","18","no","white","no","yes","768","legacy","66","66","C:/Users/Knitwitty/AppData/Roaming/KB-subject-2.csv","xpyriment","Jazzy James","3.1.9","0","h","NA","h","NA","NA","h","428","NA","3369","NA","NA","428","NA","NA","2","legacy","1024","2","48000","-16","experiment","HHHHH","2","even","13573","NA","NA","179961","178063","179909","140922","10158","NA","NA","NA","10203","NA","NA","180079","180511","180078","NA","Flanker test","63","31810","67","yes","1024"
"94.1176470588","94.1176470588","473.823529412","473.823529412","black","no","xpyriment","legacy","legacy","0","congruent","uniform","1","undefined","1","s","0","0","0","67","67","67","67","0","67","0","NA","0","0","0","67","67","67","NA","09/08/18 23:35:45","1500","The main experiment item","yes","Flankertest.osexp","C:\Users\Knitwitty\AppData\Roaming","no","mono","no","18","no","white","no","yes","768","legacy","67","67","C:/Users/Knitwitty/AppData/Roaming/KB-subject-2.csv","xpyriment","Jazzy James","3.1.9","0","s","NA","h","NA","NA","s","410","NA","3369","NA","NA","410","NA","NA","2","legacy","1024","2","48000","-16","experiment","SSSSS","2","even","13573","NA","NA","182380","180531","182343","140922","10158","NA","NA","NA","10203","NA","NA","182498","182912","182497","NA","Flanker test","64","32220","68","yes","1024"
"94.2028985507","94.2028985507","472.927536232","472.927536232","black","no","xpyriment","legacy","legacy","0","congruent","uniform","1","undefined","1","h","0","0","0","68","68","68","68","0","68","0","NA","0","0","0","68","68","68","NA","09/08/18 23:35:45","1500","The main experiment item","yes","Flankertest.osexp","C:\Users\Knitwitty\AppData\Roaming","no","mono","no","18","no","white","no","yes","768","legacy","68","68","C:/Users/Knitwitty/AppData/Roaming/KB-subject-2.csv","xpyriment","Jazzy James","3.1.9","0","h","NA","h","NA","NA","h","412","NA","3369","NA","NA","412","NA","NA","2","legacy","1024","2","48000","-16","experiment","HHHHH","2","even","13573","NA","NA","184795","182936","184758","140922","10158","NA","NA","NA","10203","NA","NA","184912","185328","184911","NA","Flanker test","65","32632","69","yes","1024"
"94.2857142857","94.2857142857","475.285714286","475.285714286","black","no","xpyriment","legacy","legacy","0","incongruent","uniform","1","undefined","1","h","0","0","0","69","69","69","69","0","69","0","NA","0","0","0","69","69","69","NA","09/08/18 23:35:45","1500","The main experiment item","yes","Flankertest.osexp","C:\Users\Knitwitty\AppData\Roaming","no","mono","no","18","no","white","no","yes","768","legacy","69","69","C:/Users/Knitwitty/AppData/Roaming/KB-subject-2.csv","xpyriment","Jazzy James","3.1.9","0","h","NA","h","NA","NA","h","638","NA","3369","NA","NA","638","NA","NA","2","legacy","1024","2","48000","-16","experiment","SSHSS","2","even","13573","NA","NA","187177","185346","187140","140922","10158","NA","NA","NA","10203","NA","NA","187294","187935","187294","NA","Flanker test","66","33270","70","yes","1024"
"94.3661971831","94.3661971831","475.295774648","475.295774648","black","no","xpyriment","legacy","legacy","0","incongruent","uniform","1","undefined","1","s","0","0","0","70","70","70","70","0","70","0","NA","0","0","0","70","70","70","NA","09/08/18 23:35:45","1500","The main experiment item","yes","Flankertest.osexp","C:\Users\Knitwitty\AppData\Roaming","no","mono","no","18","no","white","no","yes","768","legacy","70","70","C:/Users/Knitwitty/AppData/Roaming/KB-subject-2.csv","xpyriment","Jazzy James","3.1.9","0","s","NA","h","NA","NA","s","476","NA","3369","NA","NA","476","NA","NA","2","legacy","1024","2","48000","-16","experiment","HHSHH","2","even","13573","NA","NA","189801","187954","189756","140922","10158","NA","NA","NA","10203","NA","NA","189919","190399","189918","NA","Flanker test","67","33746","71","yes","1024"
"94.4444444444","94.4444444444","473.777777778","473.777777778","black","no","xpyriment","legacy","legacy","0","incongruent","uniform","1","undefined","1","h","0","0","0","71","71","71","71","0","71","0","NA","0","0","0","71","71","71","NA","09/08/18 23:35:45","1500","The main experiment item","yes","Flankertest.osexp","C:\Users\Knitwitty\AppData\Roaming","no","mono","no","18","no","white","no","yes","768","legacy","71","71","C:/Users/Knitwitty/AppData/Roaming/KB-subject-2.csv","xpyriment","Jazzy James","3.1.9","0","h","NA","h","NA","NA","h","366","NA","3369","NA","NA","366","NA","NA","2","legacy","1024","2","48000","-16","experiment","SSHSS","2","even","13573","NA","NA","192249","190413","192212","140922","10158","NA","NA","NA","10203","NA","NA","192366","192736","192365","NA","Flanker test","68","34112","72","yes","1024"
"94.5205479452","94.5205479452","473.054794521","473.054794521","black","no","xpyriment","legacy","legacy","0","incongruent","uniform","1","undefined","1","h","0","0","0","72","72","72","72","0","72","0","NA","0","0","0","72","72","72","NA","09/08/18 23:35:45","1500","The main experiment item","yes","Flankertest.osexp","C:\Users\Knitwitty\AppData\Roaming","no","mono","no","18","no","white","no","yes","768","legacy","72","72","C:/Users/Knitwitty/AppData/Roaming/KB-subject-2.csv","xpyriment","Jazzy James","3.1.9","0","h","NA","h","NA","NA","h","421","NA","3369","NA","NA","421","NA","NA","2","legacy","1024","2","48000","-16","experiment","SSHSS","2","even","13573","NA","NA","194609","192752","194573","140922","10158","NA","NA","NA","10203","NA","NA","194726","195151","194725","NA","Flanker test","69","34533","73","yes","1024"
"94.5945945946","94.5945945946","472.932432432","472.932432432","black","no","xpyriment","legacy","legacy","0","congruent","uniform","1","undefined","1","s","0","0","0","73","73","73","73","0","73","0","NA","0","0","0","73","73","73","NA","09/08/18 23:35:45","1500","The main experiment item","yes","Flankertest.osexp","C:\Users\Knitwitty\AppData\Roaming","no","mono","no","18","no","white","no","yes","768","legacy","73","73","C:/Users/Knitwitty/AppData/Roaming/KB-subject-2.csv","xpyriment","Jazzy James","3.1.9","0","s","NA","h","NA","NA","s","464","NA","3369","NA","NA","464","NA","NA","2","legacy","1024","2","48000","-16","experiment","SSSSS","2","even","13573","NA","NA","197037","195180","197002","140922","10158","NA","NA","NA","10203","NA","NA","197155","197623","197155","NA","Flanker test","70","34997","74","yes","1024"
"94.6666666667","94.6666666667","473.72","473.72","black","no","xpyriment","legacy","legacy","0","incongruent","uniform","1","undefined","1","h","0","0","0","74","74","74","74","0","74","0","NA","0","0","0","74","74","74","NA","09/08/18 23:35:45","1500","The main experiment item","yes","Flankertest.osexp","C:\Users\Knitwitty\AppData\Roaming","no","mono","no","18","no","white","no","yes","768","legacy","74","74","C:/Users/Knitwitty/AppData/Roaming/KB-subject-2.csv","xpyriment","Jazzy James","3.1.9","0","h","NA","h","NA","NA","h","532","NA","3369","NA","NA","532","NA","NA","2","legacy","1024","2","48000","-16","experiment","SSHSS","2","even","13573","NA","NA","199491","197644","199441","140922","10158","NA","NA","NA","10203","NA","NA","199608","200145","199608","NA","Flanker test","71","35529","75","yes","1024"
"94.7368421053","94.7368421053","472.960526316","472.960526316","black","no","xpyriment","legacy","legacy","0","incongruent","uniform","1","undefined","1","h","0","0","0","75","75","75","75","0","75","0","NA","0","0","0","75","75","75","NA","09/08/18 23:35:45","1500","The main experiment item","yes","Flankertest.osexp","C:\Users\Knitwitty\AppData\Roaming","no","mono","no","18","no","white","no","yes","768","legacy","75","75","C:/Users/Knitwitty/AppData/Roaming/KB-subject-2.csv","xpyriment","Jazzy James","3.1.9","0","h","NA","h","NA","NA","h","416","NA","3369","NA","NA","416","NA","NA","2","legacy","1024","2","48000","-16","experiment","SSHSS","2","even","13573","NA","NA","201999","200160","201964","140922","10158","NA","NA","NA","10203","NA","NA","202116","202536","202115","NA","Flanker test","72","35945","76","yes","1024"
"94.8051948052","94.8051948052","473.909090909","473.909090909","black","no","xpyriment","legacy","legacy","0","incongruent","uniform","1","undefined","1","s","0","0","0","76","76","76","76","0","76","0","NA","0","0","0","76","76","76","NA","09/08/18 23:35:45","1500","The main experiment item","yes","Flankertest.osexp","C:\Users\Knitwitty\AppData\Roaming","no","mono","no","18","no","white","no","yes","768","legacy","76","76","C:/Users/Knitwitty/AppData/Roaming/KB-subject-2.csv","xpyriment","Jazzy James","3.1.9","0","s","NA","h","NA","NA","s","546","NA","3369","NA","NA","546","NA","NA","2","legacy","1024","2","48000","-16","experiment","HHSHH","2","even","13573","NA","NA","204421","202569","204386","140922","10158","NA","NA","NA","10203","NA","NA","204538","205088","204537","NA","Flanker test","73","36491","77","yes","1024"
"94.8717948718","94.8717948718","473.666666667","473.666666667","black","no","xpyriment","legacy","legacy","0","congruent","uniform","1","undefined","1","s","0","0","0","77","77","77","77","0","77","0","NA","0","0","0","77","77","77","NA","09/08/18 23:35:45","1500","The main experiment item","yes","Flankertest.osexp","C:\Users\Knitwitty\AppData\Roaming","no","mono","no","18","no","white","no","yes","768","legacy","77","77","C:/Users/Knitwitty/AppData/Roaming/KB-subject-2.csv","xpyriment","Jazzy James","3.1.9","0","s","NA","h","NA","NA","s","455","NA","3369","NA","NA","455","NA","NA","2","legacy","1024","2","48000","-16","experiment","SSSSS","2","even","13573","NA","NA","206959","205107","206914","140922","10158","NA","NA","NA","10203","NA","NA","207076","207535","207075","NA","Flanker test","74","36946","78","yes","1024"
"94.9367088608","94.9367088608","473.556962025","473.556962025","black","no","xpyriment","legacy","legacy","0","incongruent","uniform","1","undefined","1","h","0","0","0","78","78","78","78","0","78","0","NA","0","0","0","78","78","78","NA","09/08/18 23:35:45","1500","The main experiment item","yes","Flankertest.osexp","C:\Users\Knitwitty\AppData\Roaming","no","mono","no","18","no","white","no","yes","768","legacy","78","78","C:/Users/Knitwitty/AppData/Roaming/KB-subject-2.csv","xpyriment","Jazzy James","3.1.9","0","h","NA","h","NA","NA","h","465","NA","3369","NA","NA","465","NA","NA","2","legacy","1024","2","48000","-16","experiment","SSHSS","2","even","13573","NA","NA","209397","207558","209362","140922","10158","NA","NA","NA","10203","NA","NA","209514","209984","209513","NA","Flanker test","75","37411","79","yes","1024"
"95","95","473.0125","473.0125","black","no","xpyriment","legacy","legacy","0","congruent","uniform","1","undefined","1","s","0","0","0","79","79","79","79","0","79","0","NA","0","0","0","79","79","79","NA","09/08/18 23:35:45","1500","The main experiment item","yes","Flankertest.osexp","C:\Users\Knitwitty\AppData\Roaming","no","mono","no","18","no","white","no","yes","768","legacy","79","79","C:/Users/Knitwitty/AppData/Roaming/KB-subject-2.csv","xpyriment","Jazzy James","3.1.9","0","s","NA","h","NA","NA","s","430","NA","3369","NA","NA","430","NA","NA","2","legacy","1024","2","48000","-16","experiment","SSSSS","2","even","13573","NA","NA","211839","210008","211803","140922","10158","NA","NA","NA","10203","NA","NA","211958","212392","211957","NA","Flanker test","76","37841","80","yes","1024"
"95.0617283951","95.0617283951","472.790123457","472.790123457","black","no","xpyriment","legacy","legacy","0","congruent","uniform","1","undefined","1","h","0","0","0","80","80","80","80","0","80","0","NA","0","0","0","80","80","80","NA","09/08/18 23:35:45","600","The main experiment item","yes","Flankertest.osexp","C:\Users\Knitwitty\AppData\Roaming","no","mono","no","18","no","white","no","yes","768","legacy","0","79","C:/Users/Knitwitty/AppData/Roaming/KB-subject-2.csv","xpyriment","Jazzy James","3.1.9","0","h","NA","h","s","NA","h","455","NA","3369","5539","NA","455","NA","NA","2","legacy","1024","2","48000","-16","experiment","HHHHH","2","even","13573","219048","NA","219850","212422","219813","140922","10158","NA","NA","NA","10203","213505","NA","219965","220425","219965","NA","Flanker test","77","38296","81","yes","1024"
"95.1219512195","95.1219512195","471.134146341","471.134146341","black","no","xpyriment","legacy","legacy","0","incongruent","uniform","1","undefined","1","h","0","0","0","81","81","81","81","0","81","0","NA","0","0","0","81","81","81","NA","09/08/18 23:35:45","600","The main experiment item","yes","Flankertest.osexp","C:\Users\Knitwitty\AppData\Roaming","no","mono","no","18","no","white","no","yes","768","legacy","1","79","C:/Users/Knitwitty/AppData/Roaming/KB-subject-2.csv","xpyriment","Jazzy James","3.1.9","0","h","NA","h","s","NA","h","337","NA","3369","5539","NA","337","NA","NA","2","legacy","1024","2","48000","-16","experiment","SSHSS","2","even","13573","219048","NA","222285","220448","222249","140922","10158","NA","NA","NA","10203","213505","NA","222402","222743","222401","NA","Flanker test","78","38633","82","yes","1024"
"95.1807228916","95.1807228916","472.831325301","472.831325301","black","no","xpyriment","legacy","legacy","0","incongruent","uniform","1","undefined","1","h","0","0","0","82","82","82","82","0","82","0","NA","0","0","0","82","82","82","NA","09/08/18 23:35:45","600","The main experiment item","yes","Flankertest.osexp","C:\Users\Knitwitty\AppData\Roaming","no","mono","no","18","no","white","no","yes","768","legacy","2","79","C:/Users/Knitwitty/AppData/Roaming/KB-subject-2.csv","xpyriment","Jazzy James","3.1.9","0","h","NA","h","s","NA","h","612","NA","3369","5539","NA","612","NA","NA","2","legacy","1024","2","48000","-16","experiment","SSHSS","2","even","13573","219048","NA","224611","222766","224576","140922","10158","NA","NA","NA","10203","213505","NA","224728","225345","224728","NA","Flanker test","79","39245","83","yes","1024"
"95.2380952381","95.2380952381","472.642857143","472.642857143","black","no","xpyriment","legacy","legacy","0","incongruent","uniform","1","undefined","1","s","0","0","0","83","83","83","83","0","83","0","NA","0","0","0","83","83","83","NA","09/08/18 23:35:45","600","The main experiment item","yes","Flankertest.osexp","C:\Users\Knitwitty\AppData\Roaming","no","mono","no","18","no","white","no","yes","768","legacy","3","79","C:/Users/Knitwitty/AppData/Roaming/KB-subject-2.csv","xpyriment","Jazzy James","3.1.9","0","s","NA","h","s","NA","s","457","NA","3369","5539","NA","457","NA","NA","2","legacy","1024","2","48000","-16","experiment","HHSHH","2","even","13573","219048","NA","227749","225868","227704","140922","10158","225363","NA","NA","10203","213505","NA","227866","228328","227866","NA","Flanker test","80","39702","84","yes","1024"
"94.1176470588","94.1176470588","471.576470588","471.576470588","black","no","xpyriment","legacy","legacy","0","incongruent","uniform","0","undefined","0","s","0","0","0","84","84","84","84","0","84","0","NA","0","0","0","84","84","84","NA","09/08/18 23:35:45","600","The main experiment item","yes","Flankertest.osexp","C:\Users\Knitwitty\AppData\Roaming","no","mono","no","18","no","white","no","yes","768","legacy","4","79","C:/Users/Knitwitty/AppData/Roaming/KB-subject-2.csv","xpyriment","Jazzy James","3.1.9","0","h","NA","h","s","NA","h","382","NA","3369","5539","NA","382","NA","NA","2","legacy","1024","2","48000","-16","experiment","HHSHH","2","even","13573","219048","NA","230217","228348","230163","140922","10158","225363","NA","NA","10203","213505","NA","230334","230721","230333","NA","Flanker test","80","40084","85","yes","1024"
"94.1860465116","94.1860465116","471.918604651","471.918604651","black","no","xpyriment","legacy","legacy","0","incongruent","uniform","1","undefined","1","s","0","0","0","85","85","85","85","0","85","0","NA","0","0","0","85","85","85","NA","09/08/18 23:35:45","600","The main experiment item","yes","Flankertest.osexp","C:\Users\Knitwitty\AppData\Roaming","no","mono","no","18","no","white","no","yes","768","legacy","5","79","C:/Users/Knitwitty/AppData/Roaming/KB-subject-2.csv","xpyriment","Jazzy James","3.1.9","0","s","NA","h","s","NA","s","501","NA","3369","5539","NA","501","NA","NA","2","legacy","1024","2","48000","-16","experiment","HHSHH","2","even","13573","219048","NA","233096","231245","233060","230739","10158","225363","NA","NA","10203","213505","NA","233214","233720","233214","NA","Flanker test","81","40585","86","yes","1024"
"94.2528735632","94.2528735632","471.057471264","471.057471264","black","no","xpyriment","legacy","legacy","0","congruent","uniform","1","undefined","1","h","0","0","0","86","86","86","86","0","86","0","NA","0","0","0","86","86","86","NA","09/08/18 23:35:45","600","The main experiment item","yes","Flankertest.osexp","C:\Users\Knitwitty\AppData\Roaming","no","mono","no","18","no","white","no","yes","768","legacy","6","79","C:/Users/Knitwitty/AppData/Roaming/KB-subject-2.csv","xpyriment","Jazzy James","3.1.9","0","h","NA","h","s","NA","h","397","NA","3369","5539","NA","397","NA","NA","2","legacy","1024","2","48000","-16","experiment","HHHHH","2","even","13573","219048","NA","235585","233741","235551","230739","10158","225363","NA","NA","10203","213505","NA","235702","236105","235701","NA","Flanker test","82","40982","87","yes","1024"
"94.3181818182","94.3181818182","470.159090909","470.159090909","black","no","xpyriment","legacy","legacy","0","congruent","uniform","1","undefined","1","s","0","0","0","87","87","87","87","0","87","0","NA","0","0","0","87","87","87","NA","09/08/18 23:35:45","600","The main experiment item","yes","Flankertest.osexp","C:\Users\Knitwitty\AppData\Roaming","no","mono","no","18","no","white","no","yes","768","legacy","7","79","C:/Users/Knitwitty/AppData/Roaming/KB-subject-2.csv","xpyriment","Jazzy James","3.1.9","0","s","NA","h","s","NA","s","392","NA","3369","5539","NA","392","NA","NA","2","legacy","1024","2","48000","-16","experiment","SSSSS","2","even","13573","219048","NA","237974","236123","237932","230739","10158","225363","NA","NA","10203","213505","NA","238092","238489","238092","NA","Flanker test","83","41374","88","yes","1024"
"94.3820224719","94.3820224719","469.674157303","469.674157303","black","no","xpyriment","legacy","legacy","0","incongruent","uniform","1","undefined","1","s","0","0","0","88","88","88","88","0","88","0","NA","0","0","0","88","88","88","NA","09/08/18 23:35:45","600","The main experiment item","yes","Flankertest.osexp","C:\Users\Knitwitty\AppData\Roaming","no","mono","no","18","no","white","no","yes","768","legacy","8","79","C:/Users/Knitwitty/AppData/Roaming/KB-subject-2.csv","xpyriment","Jazzy James","3.1.9","0","s","NA","h","s","NA","s","427","NA","3369","5539","NA","427","NA","NA","2","legacy","1024","2","48000","-16","experiment","HHSHH","2","even","13573","219048","NA","240355","238510","240321","230739","10158","225363","NA","NA","10203","213505","NA","240472","240904","240471","NA","Flanker test","84","41801","89","yes","1024"
"94.4444444444","94.4444444444","468.922222222","468.922222222","black","no","xpyriment","legacy","legacy","0","congruent","uniform","1","undefined","1","h","0","0","0","89","89","89","89","0","89","0","NA","0","0","0","89","89","89","NA","09/08/18 23:35:45","600","The main experiment item","yes","Flankertest.osexp","C:\Users\Knitwitty\AppData\Roaming","no","mono","no","18","no","white","no","yes","768","legacy","9","79","C:/Users/Knitwitty/AppData/Roaming/KB-subject-2.csv","xpyriment","Jazzy James","3.1.9","0","h","NA","h","s","NA","h","402","NA","3369","5539","NA","402","NA","NA","2","legacy","1024","2","48000","-16","experiment","HHHHH","2","even","13573","219048","NA","242772","240922","242729","230739","10158","225363","NA","NA","10203","213505","NA","242889","243297","242888","NA","Flanker test","85","42203","90","yes","1024"
"94.5054945055","94.5054945055","468.087912088","468.087912088","black","no","xpyriment","legacy","legacy","0","congruent","uniform","1","undefined","1","h","0","0","0","90","90","90","90","0","90","0","NA","0","0","0","90","90","90","NA","09/08/18 23:35:45","600","The main experiment item","yes","Flankertest.osexp","C:\Users\Knitwitty\AppData\Roaming","no","mono","no","18","no","white","no","yes","768","legacy","10","79","C:/Users/Knitwitty/AppData/Roaming/KB-subject-2.csv","xpyriment","Jazzy James","3.1.9","0","h","NA","h","s","NA","h","393","NA","3369","5539","NA","393","NA","NA","2","legacy","1024","2","48000","-16","experiment","HHHHH","2","even","13573","219048","NA","245175","243320","245130","230739","10158","225363","NA","NA","10203","213505","NA","245291","245689","245291","NA","Flanker test","86","42596","91","yes","1024"
"94.5652173913","94.5652173913","467.347826087","467.347826087","black","no","xpyriment","legacy","legacy","0","incongruent","uniform","1","undefined","1","h","0","0","0","91","91","91","91","0","91","0","NA","0","0","0","91","91","91","NA","09/08/18 23:35:45","600","The main experiment item","yes","Flankertest.osexp","C:\Users\Knitwitty\AppData\Roaming","no","mono","no","18","no","white","no","yes","768","legacy","11","79","C:/Users/Knitwitty/AppData/Roaming/KB-subject-2.csv","xpyriment","Jazzy James","3.1.9","0","h","NA","h","s","NA","h","400","NA","3369","5539","NA","400","NA","NA","2","legacy","1024","2","48000","-16","experiment","SSHSS","2","even","13573","219048","NA","247567","245711","247526","230739","10158","225363","NA","NA","10203","213505","NA","247684","248089","247684","NA","Flanker test","87","42996","92","yes","1024"
"94.623655914","94.623655914","466.376344086","466.376344086","black","no","xpyriment","legacy","legacy","0","incongruent","uniform","1","undefined","1","h","0","0","0","92","92","92","92","0","92","0","NA","0","0","0","92","92","92","NA","09/08/18 23:35:45","600","The main experiment item","yes","Flankertest.osexp","C:\Users\Knitwitty\AppData\Roaming","no","mono","no","18","no","white","no","yes","768","legacy","12","79","C:/Users/Knitwitty/AppData/Roaming/KB-subject-2.csv","xpyriment","Jazzy James","3.1.9","0","h","NA","h","s","NA","h","377","NA","3369","5539","NA","377","NA","NA","2","legacy","1024","2","48000","-16","experiment","SSHSS","2","even","13573","219048","NA","249982","248107","249938","230739","10158","225363","NA","NA","10203","213505","NA","250099","250481","250098","NA","Flanker test","88","43373","93","yes","1024"
"94.6808510638","94.6808510638","465.393617021","465.393617021","black","no","xpyriment","legacy","legacy","0","congruent","uniform","1","undefined","1","s","0","0","0","93","93","93","93","0","93","0","NA","0","0","0","93","93","93","NA","09/08/18 23:35:45","600","The main experiment item","yes","Flankertest.osexp","C:\Users\Knitwitty\AppData\Roaming","no","mono","no","18","no","white","no","yes","768","legacy","13","79","C:/Users/Knitwitty/AppData/Roaming/KB-subject-2.csv","xpyriment","Jazzy James","3.1.9","0","s","NA","h","s","NA","s","374","NA","3369","5539","NA","374","NA","NA","2","legacy","1024","2","48000","-16","experiment","SSSSS","2","even","13573","219048","NA","252359","250501","252325","230739","10158","225363","NA","NA","10203","213505","NA","252477","252856","252476","NA","Flanker test","89","43747","94","yes","1024"
"94.7368421053","94.7368421053","464.284210526","464.284210526","black","no","xpyriment","legacy","legacy","0","incongruent","uniform","1","undefined","1","s","0","0","0","94","94","94","94","0","94","0","NA","0","0","0","94","94","94","NA","09/08/18 23:35:45","600","The main experiment item","yes","Flankertest.osexp","C:\Users\Knitwitty\AppData\Roaming","no","mono","no","18","no","white","no","yes","768","legacy","14","79","C:/Users/Knitwitty/AppData/Roaming/KB-subject-2.csv","xpyriment","Jazzy James","3.1.9","0","s","NA","h","s","NA","s","360","NA","3369","5539","NA","360","NA","NA","2","legacy","1024","2","48000","-16","experiment","HHSHH","2","even","13573","219048","NA","254734","252882","254694","230739","10158","225363","NA","NA","10203","213505","NA","254851","255217","254851","NA","Flanker test","90","44107","95","yes","1024"
"94.7916666667","94.7916666667","463.010416667","463.010416667","black","no","xpyriment","legacy","legacy","0","congruent","uniform","1","undefined","1","s","0","0","0","95","95","95","95","0","95","0","NA","0","0","0","95","95","95","NA","09/08/18 23:35:45","600","The main experiment item","yes","Flankertest.osexp","C:\Users\Knitwitty\AppData\Roaming","no","mono","no","18","no","white","no","yes","768","legacy","15","79","C:/Users/Knitwitty/AppData/Roaming/KB-subject-2.csv","xpyriment","Jazzy James","3.1.9","0","s","NA","h","s","NA","s","342","NA","3369","5539","NA","342","NA","NA","2","legacy","1024","2","48000","-16","experiment","SSSSS","2","even","13573","219048","NA","257081","255240","257045","230739","10158","225363","NA","NA","10203","213505","NA","257197","257545","257197","NA","Flanker test","91","44449","96","yes","1024"
"94.8453608247","94.8453608247","461.567010309","461.567010309","black","no","xpyriment","legacy","legacy","0","incongruent","uniform","1","undefined","1","s","0","0","0","96","96","96","96","0","96","0","NA","0","0","0","96","96","96","NA","09/08/18 23:35:45","600","The main experiment item","yes","Flankertest.osexp","C:\Users\Knitwitty\AppData\Roaming","no","mono","no","18","no","white","no","yes","768","legacy","16","79","C:/Users/Knitwitty/AppData/Roaming/KB-subject-2.csv","xpyriment","Jazzy James","3.1.9","0","s","NA","h","s","NA","s","323","NA","3369","5539","NA","323","NA","NA","2","legacy","1024","2","48000","-16","experiment","HHSHH","2","even","13573","219048","NA","259413","257564","259375","230739","10158","225363","NA","NA","10203","213505","NA","259529","259857","259529","NA","Flanker test","92","44772","97","yes","1024"
"94.8979591837","94.8979591837","460.857142857","460.857142857","black","no","xpyriment","legacy","legacy","0","congruent","uniform","1","undefined","1","h","0","0","0","97","97","97","97","0","97","0","NA","0","0","0","97","97","97","NA","09/08/18 23:35:45","600","The main experiment item","yes","Flankertest.osexp","C:\Users\Knitwitty\AppData\Roaming","no","mono","no","18","no","white","no","yes","768","legacy","17","79","C:/Users/Knitwitty/AppData/Roaming/KB-subject-2.csv","xpyriment","Jazzy James","3.1.9","0","h","NA","h","s","NA","h","392","NA","3369","5539","NA","392","NA","NA","2","legacy","1024","2","48000","-16","experiment","HHHHH","2","even","13573","219048","NA","261735","259879","261692","230739","10158","225363","NA","NA","10203","213505","NA","261852","262249","261851","NA","Flanker test","93","45164","98","yes","1024"
"94.9494949495","94.9494949495","460.262626263","460.262626263","black","no","xpyriment","legacy","legacy","0","congruent","uniform","1","undefined","1","h","0","0","0","98","98","98","98","0","98","0","NA","0","0","0","98","98","98","NA","09/08/18 23:35:45","600","The main experiment item","yes","Flankertest.osexp","C:\Users\Knitwitty\AppData\Roaming","no","mono","no","18","no","white","no","yes","768","legacy","18","79","C:/Users/Knitwitty/AppData/Roaming/KB-subject-2.csv","xpyriment","Jazzy James","3.1.9","0","h","NA","h","s","NA","h","402","NA","3369","5539","NA","402","NA","NA","2","legacy","1024","2","48000","-16","experiment","HHHHH","2","even","13573","219048","NA","264110","262267","264061","230739","10158","225363","NA","NA","10203","213505","NA","264226","264634","264226","NA","Flanker test","94","45566","99","yes","1024"
"95","95","459.71","459.71","black","no","xpyriment","legacy","legacy","0","congruent","uniform","1","undefined","1","h","0","0","0","99","99","99","99","0","99","0","NA","0","0","0","99","99","99","NA","09/08/18 23:35:45","600","The main experiment item","yes","Flankertest.osexp","C:\Users\Knitwitty\AppData\Roaming","no","mono","no","18","no","white","no","yes","768","legacy","19","79","C:/Users/Knitwitty/AppData/Roaming/KB-subject-2.csv","xpyriment","Jazzy James","3.1.9","0","h","NA","h","s","NA","h","405","NA","3369","5539","NA","405","NA","NA","2","legacy","1024","2","48000","-16","experiment","HHHHH","2","even","13573","219048","NA","266617","264757","266576","230739","10158","225363","NA","NA","10203","213505","NA","266735","267145","266734","NA","Flanker test","95","45971","100","yes","1024"
"95.0495049505","95.0495049505","459.336633663","459.336633663","black","no","xpyriment","legacy","legacy","0","congruent","uniform","1","undefined","1","s","0","0","0","100","100","100","100","0","100","0","NA","0","0","0","100","100","100","NA","09/08/18 23:35:45","600","The main experiment item","yes","Flankertest.osexp","C:\Users\Knitwitty\AppData\Roaming","no","mono","no","18","no","white","no","yes","768","legacy","20","79","C:/Users/Knitwitty/AppData/Roaming/KB-subject-2.csv","xpyriment","Jazzy James","3.1.9","0","s","NA","h","s","NA","s","422","NA","3369","5539","NA","422","NA","NA","2","legacy","1024","2","48000","-16","experiment","SSSSS","2","even","13573","219048","NA","269009","267168","268969","230739","10158","225363","NA","NA","10203","213505","NA","269126","269553","269125","NA","Flanker test","96","46393","101","yes","1024"
"95.0980392157","95.0980392157","459.911764706","459.911764706","black","no","xpyriment","legacy","legacy","0","incongruent","uniform","1","undefined","1","s","0","0","0","101","101","101","101","0","101","0","NA","0","0","0","101","101","101","NA","09/08/18 23:35:45","600","The main experiment item","yes","Flankertest.osexp","C:\Users\Knitwitty\AppData\Roaming","no","mono","no","18","no","white","no","yes","768","legacy","21","79","C:/Users/Knitwitty/AppData/Roaming/KB-subject-2.csv","xpyriment","Jazzy James","3.1.9","0","s","NA","h","s","NA","s","518","NA","3369","5539","NA","518","NA","NA","2","legacy","1024","2","48000","-16","experiment","HHSHH","2","even","13573","219048","NA","271417","269573","271379","230739","10158","225363","NA","NA","10203","213505","NA","271534","272057","271533","NA","Flanker test","97","46911","102","yes","1024"
"95.145631068","95.145631068","459.59223301","459.59223301","black","no","xpyriment","legacy","legacy","0","incongruent","uniform","1","undefined","1","s","0","0","0","102","102","102","102","0","102","0","NA","0","0","0","102","102","102","NA","09/08/18 23:35:45","600","The main experiment item","yes","Flankertest.osexp","C:\Users\Knitwitty\AppData\Roaming","no","mono","no","18","no","white","no","yes","768","legacy","22","79","C:/Users/Knitwitty/AppData/Roaming/KB-subject-2.csv","xpyriment","Jazzy James","3.1.9","0","s","NA","h","s","NA","s","427","NA","3369","5539","NA","427","NA","NA","2","legacy","1024","2","48000","-16","experiment","HHSHH","2","even","13573","219048","NA","273940","272080","273903","230739","10158","225363","NA","NA","10203","213505","NA","274057","274490","274056","NA","Flanker test","98","47338","103","yes","1024"
"95.1923076923","95.1923076923","460.317307692","460.317307692","black","no","xpyriment","legacy","legacy","0","incongruent","uniform","1","undefined","1","h","0","0","0","103","103","103","103","0","103","0","NA","0","0","0","103","103","103","NA","09/08/18 23:35:45","600","The main experiment item","yes","Flankertest.osexp","C:\Users\Knitwitty\AppData\Roaming","no","mono","no","18","no","white","no","yes","768","legacy","23","79","C:/Users/Knitwitty/AppData/Roaming/KB-subject-2.csv","xpyriment","Jazzy James","3.1.9","0","h","NA","h","s","NA","h","535","NA","3369","5539","NA","535","NA","NA","2","legacy","1024","2","48000","-16","experiment","SSHSS","2","even","13573","219048","NA","276350","274516","276312","230739","10158","225363","NA","NA","10203","213505","NA","276468","277009","276467","NA","Flanker test","99","47873","104","yes","1024"
"95.2380952381","95.2380952381","462.266666667","462.266666667","black","no","xpyriment","legacy","legacy","0","congruent","uniform","1","undefined","1","h","0","0","0","104","104","104","104","0","104","0","NA","0","0","0","104","104","104","NA","09/08/18 23:35:45","600","The main experiment item","yes","Flankertest.osexp","C:\Users\Knitwitty\AppData\Roaming","no","mono","no","18","no","white","no","yes","768","legacy","24","79","C:/Users/Knitwitty/AppData/Roaming/KB-subject-2.csv","xpyriment","Jazzy James","3.1.9","0","h","NA","h","s","NA","h","665","NA","3369","5539","NA","665","NA","NA","2","legacy","1024","2","48000","-16","experiment","HHHHH","2","even","13573","219048","NA","278895","277027","278855","230739","10158","225363","NA","NA","10203","213505","NA","279011","279681","279011","NA","Flanker test","100","48538","105","yes","1024"
"95.2830188679","95.2830188679","461.301886792","461.301886792","black","no","xpyriment","legacy","legacy","0","congruent","uniform","1","undefined","1","s","0","0","0","105","105","105","105","0","105","0","NA","0","0","0","105","105","105","NA","09/08/18 23:35:45","600","The main experiment item","yes","Flankertest.osexp","C:\Users\Knitwitty\AppData\Roaming","no","mono","no","18","no","white","no","yes","768","legacy","25","79","C:/Users/Knitwitty/AppData/Roaming/KB-subject-2.csv","xpyriment","Jazzy James","3.1.9","0","s","NA","h","s","NA","s","360","NA","3369","5539","NA","360","NA","NA","2","legacy","1024","2","48000","-16","experiment","SSSSS","2","even","13573","219048","NA","282071","280212","282030","230739","10158","279705","NA","NA","10203","213505","NA","282187","282554","282187","NA","Flanker test","101","48898","106","yes","1024"
"94.3925233645","94.3925233645","460.831775701","460.831775701","black","no","xpyriment","legacy","legacy","0","incongruent","uniform","0","undefined","0","h","0","0","0","106","106","106","106","0","106","0","NA","0","0","0","106","106","106","NA","09/08/18 23:35:45","600","The main experiment item","yes","Flankertest.osexp","C:\Users\Knitwitty\AppData\Roaming","no","mono","no","18","no","white","no","yes","768","legacy","26","79","C:/Users/Knitwitty/AppData/Roaming/KB-subject-2.csv","xpyriment","Jazzy James","3.1.9","0","s","NA","h","s","NA","s","411","NA","3369","5539","NA","411","NA","NA","2","legacy","1024","2","48000","-16","experiment","SSHSS","2","even","13573","219048","NA","284443","282573","284405","230739","10158","279705","NA","NA","10203","213505","NA","284561","284978","284560","NA","Flanker test","101","49309","107","yes","1024"
"93.5185185185","93.5185185185","460.074074074","460.074074074","black","no","xpyriment","legacy","legacy","0","congruent","uniform","0","undefined","0","s","0","0","0","107","107","107","107","0","107","0","NA","0","0","0","107","107","107","NA","09/08/18 23:35:45","600","The main experiment item","yes","Flankertest.osexp","C:\Users\Knitwitty\AppData\Roaming","no","mono","no","18","no","white","no","yes","768","legacy","27","79","C:/Users/Knitwitty/AppData/Roaming/KB-subject-2.csv","xpyriment","Jazzy James","3.1.9","0","h","NA","h","s","NA","h","379","NA","3369","5539","NA","379","NA","NA","2","legacy","1024","2","48000","-16","experiment","SSSSS","2","even","13573","219048","NA","287395","285507","287360","285001","10158","279705","NA","NA","10203","213505","NA","287512","287896","287511","NA","Flanker test","101","49688","108","yes","1024"
"92.6605504587","92.6605504587","458.908256881","458.908256881","black","no","xpyriment","legacy","legacy","0","incongruent","uniform","0","undefined","0","s","0","0","0","108","108","108","108","0","108","0","NA","0","0","0","108","108","108","NA","09/08/18 23:35:45","600","The main experiment item","yes","Flankertest.osexp","C:\Users\Knitwitty\AppData\Roaming","no","mono","no","18","no","white","no","yes","768","legacy","28","79","C:/Users/Knitwitty/AppData/Roaming/KB-subject-2.csv","xpyriment","Jazzy James","3.1.9","0","h","NA","h","s","NA","h","333","NA","3369","5539","NA","333","NA","NA","2","legacy","1024","2","48000","-16","experiment","HHSHH","2","even","13573","219048","NA","290290","288424","290252","287919","10158","279705","NA","NA","10203","213505","NA","290406","290746","290406","NA","Flanker test","101","50021","109","yes","1024"
"92.7272727273","92.7272727273","459.3","459.3","black","no","xpyriment","legacy","legacy","0","incongruent","uniform","1","undefined","1","h","0","0","0","109","109","109","109","0","109","0","NA","0","0","0","109","109","109","NA","09/08/18 23:35:45","600","The main experiment item","yes","Flankertest.osexp","C:\Users\Knitwitty\AppData\Roaming","no","mono","no","18","no","white","no","yes","768","legacy","29","79","C:/Users/Knitwitty/AppData/Roaming/KB-subject-2.csv","xpyriment","Jazzy James","3.1.9","0","h","NA","h","s","NA","h","502","NA","3369","5539","NA","502","NA","NA","2","legacy","1024","2","48000","-16","experiment","SSHSS","2","even","13573","219048","NA","293151","291270","293113","290764","10158","279705","NA","NA","10203","213505","NA","293269","293778","293268","NA","Flanker test","102","50523","110","yes","1024"
"92.7927927928","92.7927927928","458.675675676","458.675675676","black","no","xpyriment","legacy","legacy","0","congruent","uniform","1","undefined","1","h","0","0","0","110","110","110","110","0","110","0","NA","0","0","0","110","110","110","NA","09/08/18 23:35:45","600","The main experiment item","yes","Flankertest.osexp","C:\Users\Knitwitty\AppData\Roaming","no","mono","no","18","no","white","no","yes","768","legacy","30","79","C:/Users/Knitwitty/AppData/Roaming/KB-subject-2.csv","xpyriment","Jazzy James","3.1.9","0","h","NA","h","s","NA","h","390","NA","3369","5539","NA","390","NA","NA","2","legacy","1024","2","48000","-16","experiment","HHHHH","2","even","13573","219048","NA","295649","293807","295614","290764","10158","279705","NA","NA","10203","213505","NA","295766","296162","295766","NA","Flanker test","103","50913","111","yes","1024"
"92.8571428571","92.8571428571","458.383928571","458.383928571","black","no","xpyriment","legacy","legacy","0","congruent","uniform","1","undefined","1","h","0","0","0","111","111","111","111","0","111","0","NA","0","0","0","111","111","111","NA","09/08/18 23:35:45","600","The main experiment item","yes","Flankertest.osexp","C:\Users\Knitwitty\AppData\Roaming","no","mono","no","18","no","white","no","yes","768","legacy","31","79","C:/Users/Knitwitty/AppData/Roaming/KB-subject-2.csv","xpyriment","Jazzy James","3.1.9","0","h","NA","h","s","NA","h","426","NA","3369","5539","NA","426","NA","NA","2","legacy","1024","2","48000","-16","experiment","HHHHH","2","even","13573","219048","NA","298068","296186","298023","290764","10158","279705","NA","NA","10203","213505","NA","298186","298617","298185","NA","Flanker test","104","51339","112","yes","1024"
"92.9203539823","92.9203539823","457.690265487","457.690265487","black","no","xpyriment","legacy","legacy","0","congruent","uniform","1","undefined","1","s","0","0","0","112","112","112","112","0","112","0","NA","0","0","0","112","112","112","NA","09/08/18 23:35:45","600","The main experiment item","yes","Flankertest.osexp","C:\Users\Knitwitty\AppData\Roaming","no","mono","no","18","no","white","no","yes","768","legacy","32","79","C:/Users/Knitwitty/AppData/Roaming/KB-subject-2.csv","xpyriment","Jazzy James","3.1.9","0","s","NA","h","s","NA","s","380","NA","3369","5539","NA","380","NA","NA","2","legacy","1024","2","48000","-16","experiment","SSSSS","2","even","13573","219048","NA","300474","298639","300438","290764","10158","279705","NA","NA","10203","213505","NA","300591","300978","300590","NA","Flanker test","105","51719","113","yes","1024"
"92.1052631579","92.1052631579","457.350877193","457.350877193","black","no","xpyriment","legacy","legacy","0","incongruent","uniform","0","undefined","0","h","0","0","0","113","113","113","113","0","113","0","NA","0","0","0","113","113","113","NA","09/08/18 23:35:45","600","The main experiment item","yes","Flankertest.osexp","C:\Users\Knitwitty\AppData\Roaming","no","mono","no","18","no","white","no","yes","768","legacy","33","79","C:/Users/Knitwitty/AppData/Roaming/KB-subject-2.csv","xpyriment","Jazzy James","3.1.9","0","s","NA","h","s","NA","s","419","NA","3369","5539","NA","419","NA","NA","2","legacy","1024","2","48000","-16","experiment","SSHSS","2","even","13573","219048","NA","302851","300997","302815","290764","10158","279705","NA","NA","10203","213505","NA","302968","303393","302967","NA","Flanker test","105","52138","114","yes","1024"
"92.1739130435","92.1739130435","457.765217391","457.765217391","black","no","xpyriment","legacy","legacy","0","congruent","uniform","1","undefined","1","s","0","0","0","114","114","114","114","0","114","0","NA","0","0","0","114","114","114","NA","09/08/18 23:35:45","600","The main experiment item","yes","Flankertest.osexp","C:\Users\Knitwitty\AppData\Roaming","no","mono","no","18","no","white","no","yes","768","legacy","34","79","C:/Users/Knitwitty/AppData/Roaming/KB-subject-2.csv","xpyriment","Jazzy James","3.1.9","0","s","NA","h","s","NA","s","505","NA","3369","5539","NA","505","NA","NA","2","legacy","1024","2","48000","-16","experiment","SSSSS","2","even","13573","219048","NA","305765","303921","305731","303415","10158","279705","NA","NA","10203","213505","NA","305882","306393","305881","NA","Flanker test","106","52643","115","yes","1024"
"92.2413793103","92.2413793103","459.060344828","459.060344828","black","no","xpyriment","legacy","legacy","0","incongruent","uniform","1","undefined","1","s","0","0","0","115","115","115","115","0","115","0","NA","0","0","0","115","115","115","NA","09/08/18 23:35:45","600","The main experiment item","yes","Flankertest.osexp","C:\Users\Knitwitty\AppData\Roaming","no","mono","no","18","no","white","no","yes","768","legacy","35","79","C:/Users/Knitwitty/AppData/Roaming/KB-subject-2.csv","xpyriment","Jazzy James","3.1.9","0","s","NA","h","s","NA","s","608","NA","3369","5539","NA","608","NA","NA","2","legacy","1024","2","48000","-16","experiment","HHSHH","2","even","13573","219048","NA","308310","306416","308243","303415","10158","279705","NA","NA","10203","213505","NA","308428","309042","308427","NA","Flanker test","107","53251","116","yes","1024"
"92.3076923077","92.3076923077","458.401709402","458.401709402","black","no","xpyriment","legacy","legacy","0","incongruent","uniform","1","undefined","1","s","0","0","0","116","116","116","116","0","116","0","NA","0","0","0","116","116","116","NA","09/08/18 23:35:45","600","The main experiment item","yes","Flankertest.osexp","C:\Users\Knitwitty\AppData\Roaming","no","mono","no","18","no","white","no","yes","768","legacy","36","79","C:/Users/Knitwitty/AppData/Roaming/KB-subject-2.csv","xpyriment","Jazzy James","3.1.9","0","s","NA","h","s","NA","s","382","NA","3369","5539","NA","382","NA","NA","2","legacy","1024","2","48000","-16","experiment","HHSHH","2","even","13573","219048","NA","311409","309568","311372","303415","10158","309062","NA","NA","10203","213505","NA","311526","311914","311525","NA","Flanker test","108","53633","117","yes","1024"
"91.5254237288","91.5254237288","457.855932203","457.855932203","black","no","xpyriment","legacy","legacy","0","incongruent","uniform","0","undefined","0","h","0","0","0","117","117","117","117","0","117","0","NA","0","0","0","117","117","117","NA","09/08/18 23:35:45","600","The main experiment item","yes","Flankertest.osexp","C:\Users\Knitwitty\AppData\Roaming","no","mono","no","18","no","white","no","yes","768","legacy","37","79","C:/Users/Knitwitty/AppData/Roaming/KB-subject-2.csv","xpyriment","Jazzy James","3.1.9","0","s","NA","h","s","NA","s","394","NA","3369","5539","NA","394","NA","NA","2","legacy","1024","2","48000","-16","experiment","SSHSS","2","even","13573","219048","NA","313773","311932","313728","303415","10158","309062","NA","NA","10203","213505","NA","313890","314290","313889","NA","Flanker test","108","54027","118","yes","1024"
