acc,accuracy,average_response_time,avg_rt,background,canvas_backend,clock_backend,color_backend,compensation,condition,coordinates,correct,correct_instructions1,correct_keyboard_response,correct_response,count_Block1,count_Block2,count_Block3,count_ISI,count_Stimulus,count_errorfeedback,count_experiment,count_faster,count_finish,count_fixation,count_instructions1,count_instructions2,count_instructions3,count_keyboard_response,count_logger,count_sequence,datetime,deadline,description,disable_garbage_collection,experiment_file,experiment_path,font_bold,font_family,font_italic,font_size,font_underline,foreground,form_clicks,fullscreen,height,keyboard_backend,live_row,live_row_Block1,logfile,mouse_backend,opensesame_codename,opensesame_version,repeat_cycle,response,response_finish,response_instructions1,response_instructions2,response_instructions3,response_keyboard_response,response_time,response_time_finish,response_time_instructions1,response_time_instructions2,response_time_instructions3,response_time_keyboard_response,round_decimals,sampler_backend,sound_buf_size,sound_channels,sound_freq,sound_sample_size,start,stimulus,subject_nr,subject_parity,time_Block1,time_Block2,time_Block3,time_ISI,time_Stimulus,time_errorfeedback,time_experiment,time_faster,time_finish,time_fixation,time_instructions1,time_instructions2,time_instructions3,time_keyboard_response,time_logger,time_sequence,title,total_correct,total_response_time,total_responses,uniform_coordinates,width
100,100,619,619,black,legacy,legacy,legacy,0,congruent,uniform,1,undefined,1,h,0,0,0,0,0,0,0,0,0,0,0,0,0,0,0,0,Thu Sep  6 13:51:20 2018,1500,The main experiment item,yes,FlankerTaskAHC.osexp,/Users/abigailchristie/Desktop/Faulkenberry,no,mono,no,18,no,white,no,yes,768,legacy,0,0,/Users/abigailchristie/Desktop/Faulkenberry/AHC01.csv,legacy,Kafkaesque Koffka,3.2.5,0,h,NA,return,NA,NA,h,619,NA,856,NA,NA,619,2,legacy,1024,2,48000,-16,experiment,HHHHH,1,odd,3127,NA,NA,NA,3333,NA,2250,NA,NA,3225,2263,NA,NA,3333,3954,3217,Flanker Task-AHC,1,619,1,yes,1024
100,100,536.5,536.5,black,legacy,legacy,legacy,0,congruent,uniform,1,undefined,1,h,0,0,0,1,1,1,0,1,0,1,0,0,0,1,1,1,Thu Sep  6 13:51:20 2018,1500,The main experiment item,yes,FlankerTaskAHC.osexp,/Users/abigailchristie/Desktop/Faulkenberry,no,mono,no,18,no,white,no,yes,768,legacy,1,1,/Users/abigailchristie/Desktop/Faulkenberry/AHC01.csv,legacy,Kafkaesque Koffka,3.2.5,0,h,NA,return,NA,NA,h,454,NA,856,NA,NA,454,2,legacy,1024,2,48000,-16,experiment,HHHHH,1,odd,3127,NA,NA,3969,5178,NA,2250,NA,NA,5069,2263,NA,NA,5178,5633,5060,Flanker Task-AHC,2,1073,2,yes,1024
100,100,494.6666667,494.6666667,black,legacy,legacy,legacy,0,congruent,uniform,1,undefined,1,s,0,0,0,2,2,2,0,2,0,2,0,0,0,2,2,2,Thu Sep  6 13:51:20 2018,1500,The main experiment item,yes,FlankerTaskAHC.osexp,/Users/abigailchristie/Desktop/Faulkenberry,no,mono,no,18,no,white,no,yes,768,legacy,2,2,/Users/abigailchristie/Desktop/Faulkenberry/AHC01.csv,legacy,Kafkaesque Koffka,3.2.5,0,s,NA,return,NA,NA,s,411,NA,856,NA,NA,411,2,legacy,1024,2,48000,-16,experiment,SSSSS,1,odd,3127,NA,NA,5647,6845,NA,2250,NA,NA,6737,2263,NA,NA,6845,7257,6728,Flanker Task-AHC,3,1484,3,yes,1024
100,100,486.25,486.25,black,legacy,legacy,legacy,0,incongruent,uniform,1,undefined,1,h,0,0,0,3,3,3,0,3,0,3,0,0,0,3,3,3,Thu Sep  6 13:51:20 2018,1500,The main experiment item,yes,FlankerTaskAHC.osexp,/Users/abigailchristie/Desktop/Faulkenberry,no,mono,no,18,no,white,no,yes,768,legacy,3,3,/Users/abigailchristie/Desktop/Faulkenberry/AHC01.csv,legacy,Kafkaesque Koffka,3.2.5,0,h,NA,return,NA,NA,h,461,NA,856,NA,NA,461,2,legacy,1024,2,48000,-16,experiment,SSHSS,1,odd,3127,NA,NA,7269,8467,NA,2250,NA,NA,8359,2263,NA,NA,8467,8929,8351,Flanker Task-AHC,4,1945,4,yes,1024
100,100,492.4,492.4,black,legacy,legacy,legacy,0,incongruent,uniform,1,undefined,1,s,0,0,0,4,4,4,0,4,0,4,0,0,0,4,4,4,Thu Sep  6 13:51:20 2018,1500,The main experiment item,yes,FlankerTaskAHC.osexp,/Users/abigailchristie/Desktop/Faulkenberry,no,mono,no,18,no,white,no,yes,768,legacy,4,4,/Users/abigailchristie/Desktop/Faulkenberry/AHC01.csv,legacy,Kafkaesque Koffka,3.2.5,0,s,NA,return,NA,NA,s,517,NA,856,NA,NA,517,2,legacy,1024,2,48000,-16,experiment,HHSHH,1,odd,3127,NA,NA,8942,10138,NA,2250,NA,NA,10030,2263,NA,NA,10139,10657,10022,Flanker Task-AHC,5,2462,5,yes,1024
100,100,466.6666667,466.6666667,black,legacy,legacy,legacy,0,congruent,uniform,1,undefined,1,h,0,0,0,5,5,5,0,5,0,5,0,0,0,5,5,5,Thu Sep  6 13:51:20 2018,1500,The main experiment item,yes,FlankerTaskAHC.osexp,/Users/abigailchristie/Desktop/Faulkenberry,no,mono,no,18,no,white,no,yes,768,legacy,5,5,/Users/abigailchristie/Desktop/Faulkenberry/AHC01.csv,legacy,Kafkaesque Koffka,3.2.5,0,h,NA,return,NA,NA,h,338,NA,856,NA,NA,338,2,legacy,1024,2,48000,-16,experiment,HHHHH,1,odd,3127,NA,NA,10671,11869,NA,2250,NA,NA,11760,2263,NA,NA,11870,12209,11752,Flanker Task-AHC,6,2800,6,yes,1024
100,100,467.8571429,467.8571429,black,legacy,legacy,legacy,0,congruent,uniform,1,undefined,1,h,0,0,0,6,6,6,0,6,0,6,0,0,0,6,6,6,Thu Sep  6 13:51:20 2018,1500,The main experiment item,yes,FlankerTaskAHC.osexp,/Users/abigailchristie/Desktop/Faulkenberry,no,mono,no,18,no,white,no,yes,768,legacy,6,6,/Users/abigailchristie/Desktop/Faulkenberry/AHC01.csv,legacy,Kafkaesque Koffka,3.2.5,0,h,NA,return,NA,NA,h,475,NA,856,NA,NA,475,2,legacy,1024,2,48000,-16,experiment,HHHHH,1,odd,3127,NA,NA,12220,13419,NA,2250,NA,NA,13310,2263,NA,NA,13420,13897,13301,Flanker Task-AHC,7,3275,7,yes,1024
100,100,459.75,459.75,black,legacy,legacy,legacy,0,congruent,uniform,1,undefined,1,h,0,0,0,7,7,7,0,7,0,7,0,0,0,7,7,7,Thu Sep  6 13:51:20 2018,1500,The main experiment item,yes,FlankerTaskAHC.osexp,/Users/abigailchristie/Desktop/Faulkenberry,no,mono,no,18,no,white,no,yes,768,legacy,7,7,/Users/abigailchristie/Desktop/Faulkenberry/AHC01.csv,legacy,Kafkaesque Koffka,3.2.5,0,h,NA,return,NA,NA,h,403,NA,856,NA,NA,403,2,legacy,1024,2,48000,-16,experiment,HHHHH,1,odd,3127,NA,NA,13910,15108,NA,2250,NA,NA,14999,2263,NA,NA,15108,15513,14991,Flanker Task-AHC,8,3678,8,yes,1024
100,100,453.2222222,453.2222222,black,legacy,legacy,legacy,0,incongruent,uniform,1,undefined,1,s,0,0,0,8,8,8,0,8,0,8,0,0,0,8,8,8,Thu Sep  6 13:51:20 2018,1500,The main experiment item,yes,FlankerTaskAHC.osexp,/Users/abigailchristie/Desktop/Faulkenberry,no,mono,no,18,no,white,no,yes,768,legacy,8,8,/Users/abigailchristie/Desktop/Faulkenberry/AHC01.csv,legacy,Kafkaesque Koffka,3.2.5,0,s,NA,return,NA,NA,s,401,NA,856,NA,NA,401,2,legacy,1024,2,48000,-16,experiment,HHSHH,1,odd,3127,NA,NA,15527,16724,NA,2250,NA,NA,16616,2263,NA,NA,16725,17128,16608,Flanker Task-AHC,9,4079,9,yes,1024
100,100,466.7,466.7,black,legacy,legacy,legacy,0,incongruent,uniform,1,undefined,1,h,0,0,0,9,9,9,0,9,0,9,0,0,0,9,9,9,Thu Sep  6 13:51:20 2018,1500,The main experiment item,yes,FlankerTaskAHC.osexp,/Users/abigailchristie/Desktop/Faulkenberry,no,mono,no,18,no,white,no,yes,768,legacy,9,9,/Users/abigailchristie/Desktop/Faulkenberry/AHC01.csv,legacy,Kafkaesque Koffka,3.2.5,0,h,NA,return,NA,NA,h,588,NA,856,NA,NA,588,2,legacy,1024,2,48000,-16,experiment,SSHSS,1,odd,3127,NA,NA,17140,18339,NA,2250,NA,NA,18230,2263,NA,NA,18339,18929,18222,Flanker Task-AHC,10,4667,10,yes,1024
90.90909091,90.90909091,460.3636364,460.3636364,black,legacy,legacy,legacy,0,incongruent,uniform,0,undefined,0,h,0,0,0,10,10,10,0,10,0,10,0,0,0,10,10,10,Thu Sep  6 13:51:20 2018,1500,The main experiment item,yes,FlankerTaskAHC.osexp,/Users/abigailchristie/Desktop/Faulkenberry,no,mono,no,18,no,white,no,yes,768,legacy,10,10,/Users/abigailchristie/Desktop/Faulkenberry/AHC01.csv,legacy,Kafkaesque Koffka,3.2.5,0,s,NA,return,NA,NA,s,397,NA,856,NA,NA,397,2,legacy,1024,2,48000,-16,experiment,SSHSS,1,odd,3127,NA,NA,18943,20138,NA,2250,NA,NA,20029,2263,NA,NA,20138,20537,20022,Flanker Task-AHC,10,5064,11,yes,1024
91.66666667,91.66666667,460.75,460.75,black,legacy,legacy,legacy,0,congruent,uniform,1,undefined,1,s,0,0,0,11,11,11,0,11,0,11,0,0,0,11,11,11,Thu Sep  6 13:51:20 2018,1500,The main experiment item,yes,FlankerTaskAHC.osexp,/Users/abigailchristie/Desktop/Faulkenberry,no,mono,no,18,no,white,no,yes,768,legacy,11,11,/Users/abigailchristie/Desktop/Faulkenberry/AHC01.csv,legacy,Kafkaesque Koffka,3.2.5,0,s,NA,return,NA,NA,s,465,NA,856,NA,NA,465,2,legacy,1024,2,48000,-16,experiment,SSSSS,1,odd,3127,NA,NA,21057,22253,20549,2250,NA,NA,22144,2263,NA,NA,22254,22720,22137,Flanker Task-AHC,11,5529,12,yes,1024
92.30769231,92.30769231,459.5384615,459.5384615,black,legacy,legacy,legacy,0,incongruent,uniform,1,undefined,1,h,0,0,0,12,12,12,0,12,0,12,0,0,0,12,12,12,Thu Sep  6 13:51:20 2018,1500,The main experiment item,yes,FlankerTaskAHC.osexp,/Users/abigailchristie/Desktop/Faulkenberry,no,mono,no,18,no,white,no,yes,768,legacy,12,12,/Users/abigailchristie/Desktop/Faulkenberry/AHC01.csv,legacy,Kafkaesque Koffka,3.2.5,0,h,NA,return,NA,NA,h,445,NA,856,NA,NA,445,2,legacy,1024,2,48000,-16,experiment,SSHSS,1,odd,3127,NA,NA,22732,23930,20549,2250,NA,NA,23822,2263,NA,NA,23930,24377,23814,Flanker Task-AHC,12,5974,13,yes,1024
92.85714286,92.85714286,461.2857143,461.2857143,black,legacy,legacy,legacy,0,incongruent,uniform,1,undefined,1,h,0,0,0,13,13,13,0,13,0,13,0,0,0,13,13,13,Thu Sep  6 13:51:20 2018,1500,The main experiment item,yes,FlankerTaskAHC.osexp,/Users/abigailchristie/Desktop/Faulkenberry,no,mono,no,18,no,white,no,yes,768,legacy,13,13,/Users/abigailchristie/Desktop/Faulkenberry/AHC01.csv,legacy,Kafkaesque Koffka,3.2.5,0,h,NA,return,NA,NA,h,484,NA,856,NA,NA,484,2,legacy,1024,2,48000,-16,experiment,SSHSS,1,odd,3127,NA,NA,24389,25586,20549,2250,NA,NA,25477,2263,NA,NA,25586,26071,25469,Flanker Task-AHC,13,6458,14,yes,1024
93.33333333,93.33333333,464.3333333,464.3333333,black,legacy,legacy,legacy,0,incongruent,uniform,1,undefined,1,s,0,0,0,14,14,14,0,14,0,14,0,0,0,14,14,14,Thu Sep  6 13:51:20 2018,1500,The main experiment item,yes,FlankerTaskAHC.osexp,/Users/abigailchristie/Desktop/Faulkenberry,no,mono,no,18,no,white,no,yes,768,legacy,14,14,/Users/abigailchristie/Desktop/Faulkenberry/AHC01.csv,legacy,Kafkaesque Koffka,3.2.5,0,s,NA,return,NA,NA,s,507,NA,856,NA,NA,507,2,legacy,1024,2,48000,-16,experiment,HHSHH,1,odd,3127,NA,NA,26084,27284,20549,2250,NA,NA,27175,2263,NA,NA,27284,27792,27167,Flanker Task-AHC,14,6965,15,yes,1024
93.75,93.75,461.5625,461.5625,black,legacy,legacy,legacy,0,incongruent,uniform,1,undefined,1,h,0,0,0,15,15,15,0,15,0,15,0,0,0,15,15,15,Thu Sep  6 13:51:20 2018,1500,The main experiment item,yes,FlankerTaskAHC.osexp,/Users/abigailchristie/Desktop/Faulkenberry,no,mono,no,18,no,white,no,yes,768,legacy,15,15,/Users/abigailchristie/Desktop/Faulkenberry/AHC01.csv,legacy,Kafkaesque Koffka,3.2.5,0,h,NA,return,NA,NA,h,420,NA,856,NA,NA,420,2,legacy,1024,2,48000,-16,experiment,SSHSS,1,odd,3127,NA,NA,27806,29003,20549,2250,NA,NA,28895,2263,NA,NA,29003,29424,28887,Flanker Task-AHC,15,7385,16,yes,1024
94.11764706,94.11764706,464.1176471,464.1176471,black,legacy,legacy,legacy,0,congruent,uniform,1,undefined,1,s,0,0,0,16,16,16,0,16,0,16,0,0,0,16,16,16,Thu Sep  6 13:51:20 2018,1500,The main experiment item,yes,FlankerTaskAHC.osexp,/Users/abigailchristie/Desktop/Faulkenberry,no,mono,no,18,no,white,no,yes,768,legacy,16,16,/Users/abigailchristie/Desktop/Faulkenberry/AHC01.csv,legacy,Kafkaesque Koffka,3.2.5,0,s,NA,return,NA,NA,s,505,NA,856,NA,NA,505,2,legacy,1024,2,48000,-16,experiment,SSSSS,1,odd,3127,NA,NA,29438,30637,20549,2250,NA,NA,30527,2263,NA,NA,30637,31143,30519,Flanker Task-AHC,16,7890,17,yes,1024
94.44444444,94.44444444,464.7777778,464.7777778,black,legacy,legacy,legacy,0,congruent,uniform,1,undefined,1,h,0,0,0,17,17,17,0,17,0,17,0,0,0,17,17,17,Thu Sep  6 13:51:20 2018,1500,The main experiment item,yes,FlankerTaskAHC.osexp,/Users/abigailchristie/Desktop/Faulkenberry,no,mono,no,18,no,white,no,yes,768,legacy,17,17,/Users/abigailchristie/Desktop/Faulkenberry/AHC01.csv,legacy,Kafkaesque Koffka,3.2.5,0,h,NA,return,NA,NA,h,476,NA,856,NA,NA,476,2,legacy,1024,2,48000,-16,experiment,HHHHH,1,odd,3127,NA,NA,31154,32355,20549,2250,NA,NA,32246,2263,NA,NA,32355,32833,32238,Flanker Task-AHC,17,8366,18,yes,1024
94.73684211,94.73684211,461.7894737,461.7894737,black,legacy,legacy,legacy,0,congruent,uniform,1,undefined,1,h,0,0,0,18,18,18,0,18,0,18,0,0,0,18,18,18,Thu Sep  6 13:51:20 2018,1500,The main experiment item,yes,FlankerTaskAHC.osexp,/Users/abigailchristie/Desktop/Faulkenberry,no,mono,no,18,no,white,no,yes,768,legacy,18,18,/Users/abigailchristie/Desktop/Faulkenberry/AHC01.csv,legacy,Kafkaesque Koffka,3.2.5,0,h,NA,return,NA,NA,h,408,NA,856,NA,NA,408,2,legacy,1024,2,48000,-16,experiment,HHHHH,1,odd,3127,NA,NA,32846,34047,20549,2250,NA,NA,33938,2263,NA,NA,34047,34456,33929,Flanker Task-AHC,18,8774,19,yes,1024
95,95,458.8,458.8,black,legacy,legacy,legacy,0,congruent,uniform,1,undefined,1,s,0,0,0,19,19,19,0,19,0,19,0,0,0,19,19,19,Thu Sep  6 13:51:20 2018,1500,The main experiment item,yes,FlankerTaskAHC.osexp,/Users/abigailchristie/Desktop/Faulkenberry,no,mono,no,18,no,white,no,yes,768,legacy,19,19,/Users/abigailchristie/Desktop/Faulkenberry/AHC01.csv,legacy,Kafkaesque Koffka,3.2.5,0,s,NA,return,NA,NA,s,402,NA,856,NA,NA,402,2,legacy,1024,2,48000,-16,experiment,SSSSS,1,odd,3127,NA,NA,34468,35667,20549,2250,NA,NA,35557,2263,NA,NA,35668,36071,35550,Flanker Task-AHC,19,9176,20,yes,1024
95.23809524,95.23809524,462.2380952,462.2380952,black,legacy,legacy,legacy,0,incongruent,uniform,1,undefined,1,s,0,0,0,20,20,20,0,20,0,20,0,0,0,20,20,20,Thu Sep  6 13:51:20 2018,1500,The main experiment item,yes,FlankerTaskAHC.osexp,/Users/abigailchristie/Desktop/Faulkenberry,no,mono,no,18,no,white,no,yes,768,legacy,20,20,/Users/abigailchristie/Desktop/Faulkenberry/AHC01.csv,legacy,Kafkaesque Koffka,3.2.5,0,s,NA,return,NA,NA,s,531,NA,856,NA,NA,531,2,legacy,1024,2,48000,-16,experiment,HHSHH,1,odd,3127,NA,NA,36082,37283,20549,2250,NA,NA,37174,2263,NA,NA,37284,37816,37166,Flanker Task-AHC,20,9707,21,yes,1024
95.45454545,95.45454545,460.5909091,460.5909091,black,legacy,legacy,legacy,0,congruent,uniform,1,undefined,1,h,0,0,0,21,21,21,0,21,0,21,0,0,0,21,21,21,Thu Sep  6 13:51:20 2018,1500,The main experiment item,yes,FlankerTaskAHC.osexp,/Users/abigailchristie/Desktop/Faulkenberry,no,mono,no,18,no,white,no,yes,768,legacy,21,21,/Users/abigailchristie/Desktop/Faulkenberry/AHC01.csv,legacy,Kafkaesque Koffka,3.2.5,0,h,NA,return,NA,NA,h,426,NA,856,NA,NA,426,2,legacy,1024,2,48000,-16,experiment,HHHHH,1,odd,3127,NA,NA,37829,39028,20549,2250,NA,NA,38920,2263,NA,NA,39028,39456,38912,Flanker Task-AHC,21,10133,22,yes,1024
95.65217391,95.65217391,459.5652174,459.5652174,black,legacy,legacy,legacy,0,congruent,uniform,1,undefined,1,h,0,0,0,22,22,22,0,22,0,22,0,0,0,22,22,22,Thu Sep  6 13:51:20 2018,1500,The main experiment item,yes,FlankerTaskAHC.osexp,/Users/abigailchristie/Desktop/Faulkenberry,no,mono,no,18,no,white,no,yes,768,legacy,22,22,/Users/abigailchristie/Desktop/Faulkenberry/AHC01.csv,legacy,Kafkaesque Koffka,3.2.5,0,h,NA,return,NA,NA,h,437,NA,856,NA,NA,437,2,legacy,1024,2,48000,-16,experiment,HHHHH,1,odd,3127,NA,NA,39466,40664,20549,2250,NA,NA,40556,2263,NA,NA,40664,41103,40548,Flanker Task-AHC,22,10570,23,yes,1024
95.83333333,95.83333333,458.7916667,458.7916667,black,legacy,legacy,legacy,0,incongruent,uniform,1,undefined,1,s,0,0,0,23,23,23,0,23,0,23,0,0,0,23,23,23,Thu Sep  6 13:51:20 2018,1500,The main experiment item,yes,FlankerTaskAHC.osexp,/Users/abigailchristie/Desktop/Faulkenberry,no,mono,no,18,no,white,no,yes,768,legacy,23,23,/Users/abigailchristie/Desktop/Faulkenberry/AHC01.csv,legacy,Kafkaesque Koffka,3.2.5,0,s,NA,return,NA,NA,s,441,NA,856,NA,NA,441,2,legacy,1024,2,48000,-16,experiment,HHSHH,1,odd,3127,NA,NA,41115,42317,20549,2250,NA,NA,42207,2263,NA,NA,42317,42760,42199,Flanker Task-AHC,23,11011,24,yes,1024
92,92,456.84,456.84,black,legacy,legacy,legacy,0,incongruent,uniform,0,undefined,0,s,0,0,0,24,24,24,0,24,0,24,0,0,0,24,24,24,Thu Sep  6 13:51:20 2018,1500,The main experiment item,yes,FlankerTaskAHC.osexp,/Users/abigailchristie/Desktop/Faulkenberry,no,mono,no,18,no,white,no,yes,768,legacy,24,24,/Users/abigailchristie/Desktop/Faulkenberry/AHC01.csv,legacy,Kafkaesque Koffka,3.2.5,0,h,NA,return,NA,NA,h,410,NA,856,NA,NA,410,2,legacy,1024,2,48000,-16,experiment,HHSHH,1,odd,3127,NA,NA,42773,43971,20549,2250,NA,NA,43862,2263,NA,NA,43972,44384,43854,Flanker Task-AHC,23,11421,25,yes,1024
92.30769231,92.30769231,455.8461538,455.8461538,black,legacy,legacy,legacy,0,congruent,uniform,1,undefined,1,h,0,0,0,25,25,25,0,25,0,25,0,0,0,25,25,25,Thu Sep  6 13:51:20 2018,1500,The main experiment item,yes,FlankerTaskAHC.osexp,/Users/abigailchristie/Desktop/Faulkenberry,no,mono,no,18,no,white,no,yes,768,legacy,25,25,/Users/abigailchristie/Desktop/Faulkenberry/AHC01.csv,legacy,Kafkaesque Koffka,3.2.5,0,h,NA,return,NA,NA,h,431,NA,856,NA,NA,431,2,legacy,1024,2,48000,-16,experiment,HHHHH,1,odd,3127,NA,NA,44905,46103,44397,2250,NA,NA,45994,2263,NA,NA,46103,46536,45985,Flanker Task-AHC,24,11852,26,yes,1024
92.59259259,92.59259259,456.1481481,456.1481481,black,legacy,legacy,legacy,0,incongruent,uniform,1,undefined,1,s,0,0,0,26,26,26,0,26,0,26,0,0,0,26,26,26,Thu Sep  6 13:51:20 2018,1500,The main experiment item,yes,FlankerTaskAHC.osexp,/Users/abigailchristie/Desktop/Faulkenberry,no,mono,no,18,no,white,no,yes,768,legacy,26,26,/Users/abigailchristie/Desktop/Faulkenberry/AHC01.csv,legacy,Kafkaesque Koffka,3.2.5,0,s,NA,return,NA,NA,s,464,NA,856,NA,NA,464,2,legacy,1024,2,48000,-16,experiment,HHSHH,1,odd,3127,NA,NA,46548,47750,44397,2250,NA,NA,47641,2263,NA,NA,47750,48216,47632,Flanker Task-AHC,25,12316,27,yes,1024
92.85714286,92.85714286,456.4642857,456.4642857,black,legacy,legacy,legacy,0,incongruent,uniform,1,undefined,1,h,0,0,0,27,27,27,0,27,0,27,0,0,0,27,27,27,Thu Sep  6 13:51:20 2018,1500,The main experiment item,yes,FlankerTaskAHC.osexp,/Users/abigailchristie/Desktop/Faulkenberry,no,mono,no,18,no,white,no,yes,768,legacy,27,27,/Users/abigailchristie/Desktop/Faulkenberry/AHC01.csv,legacy,Kafkaesque Koffka,3.2.5,0,h,NA,return,NA,NA,h,465,NA,856,NA,NA,465,2,legacy,1024,2,48000,-16,experiment,SSHSS,1,odd,3127,NA,NA,48230,49429,44397,2250,NA,NA,49320,2263,NA,NA,49429,49896,49312,Flanker Task-AHC,26,12781,28,yes,1024
93.10344828,93.10344828,457.8275862,457.8275862,black,legacy,legacy,legacy,0,congruent,uniform,1,undefined,1,h,0,0,0,28,28,28,0,28,0,28,0,0,0,28,28,28,Thu Sep  6 13:51:20 2018,1500,The main experiment item,yes,FlankerTaskAHC.osexp,/Users/abigailchristie/Desktop/Faulkenberry,no,mono,no,18,no,white,no,yes,768,legacy,28,28,/Users/abigailchristie/Desktop/Faulkenberry/AHC01.csv,legacy,Kafkaesque Koffka,3.2.5,0,h,NA,return,NA,NA,h,496,NA,856,NA,NA,496,2,legacy,1024,2,48000,-16,experiment,HHHHH,1,odd,3127,NA,NA,49907,51110,44397,2250,NA,NA,51000,2263,NA,NA,51110,51607,50993,Flanker Task-AHC,27,13277,29,yes,1024
93.33333333,93.33333333,461.0666667,461.0666667,black,legacy,legacy,legacy,0,incongruent,uniform,1,undefined,1,h,0,0,0,29,29,29,0,29,0,29,0,0,0,29,29,29,Thu Sep  6 13:51:20 2018,1500,The main experiment item,yes,FlankerTaskAHC.osexp,/Users/abigailchristie/Desktop/Faulkenberry,no,mono,no,18,no,white,no,yes,768,legacy,29,29,/Users/abigailchristie/Desktop/Faulkenberry/AHC01.csv,legacy,Kafkaesque Koffka,3.2.5,0,h,NA,return,NA,NA,h,555,NA,856,NA,NA,555,2,legacy,1024,2,48000,-16,experiment,SSHSS,1,odd,3127,NA,NA,51619,52818,44397,2250,NA,NA,52709,2263,NA,NA,52819,53375,52701,Flanker Task-AHC,28,13832,30,yes,1024
93.5483871,93.5483871,465.6774194,465.6774194,black,legacy,legacy,legacy,0,incongruent,uniform,1,undefined,1,h,0,0,0,30,30,30,0,30,0,30,0,0,0,30,30,30,Thu Sep  6 13:51:20 2018,1500,The main experiment item,yes,FlankerTaskAHC.osexp,/Users/abigailchristie/Desktop/Faulkenberry,no,mono,no,18,no,white,no,yes,768,legacy,30,30,/Users/abigailchristie/Desktop/Faulkenberry/AHC01.csv,legacy,Kafkaesque Koffka,3.2.5,0,h,NA,return,NA,NA,h,604,NA,856,NA,NA,604,2,legacy,1024,2,48000,-16,experiment,SSHSS,1,odd,3127,NA,NA,53388,54585,44397,2250,NA,NA,54476,2263,NA,NA,54586,55191,54468,Flanker Task-AHC,29,14436,31,yes,1024
93.75,93.75,467,467,black,legacy,legacy,legacy,0,incongruent,uniform,1,undefined,1,s,0,0,0,31,31,31,0,31,0,31,0,0,0,31,31,31,Thu Sep  6 13:51:20 2018,1500,The main experiment item,yes,FlankerTaskAHC.osexp,/Users/abigailchristie/Desktop/Faulkenberry,no,mono,no,18,no,white,no,yes,768,legacy,31,31,/Users/abigailchristie/Desktop/Faulkenberry/AHC01.csv,legacy,Kafkaesque Koffka,3.2.5,0,s,NA,return,NA,NA,s,508,NA,856,NA,NA,508,2,legacy,1024,2,48000,-16,experiment,HHSHH,1,odd,3127,NA,NA,55203,56402,44397,2250,NA,NA,56293,2263,NA,NA,56402,56912,56285,Flanker Task-AHC,30,14944,32,yes,1024
93.93939394,93.93939394,466.8181818,466.8181818,black,legacy,legacy,legacy,0,congruent,uniform,1,undefined,1,s,0,0,0,32,32,32,0,32,0,32,0,0,0,32,32,32,Thu Sep  6 13:51:20 2018,1500,The main experiment item,yes,FlankerTaskAHC.osexp,/Users/abigailchristie/Desktop/Faulkenberry,no,mono,no,18,no,white,no,yes,768,legacy,32,32,/Users/abigailchristie/Desktop/Faulkenberry/AHC01.csv,legacy,Kafkaesque Koffka,3.2.5,0,s,NA,return,NA,NA,s,461,NA,856,NA,NA,461,2,legacy,1024,2,48000,-16,experiment,SSSSS,1,odd,3127,NA,NA,56923,58120,44397,2250,NA,NA,58011,2263,NA,NA,58121,58584,58004,Flanker Task-AHC,31,15405,33,yes,1024
94.11764706,94.11764706,467.5294118,467.5294118,black,legacy,legacy,legacy,0,incongruent,uniform,1,undefined,1,s,0,0,0,33,33,33,0,33,0,33,0,0,0,33,33,33,Thu Sep  6 13:51:20 2018,1500,The main experiment item,yes,FlankerTaskAHC.osexp,/Users/abigailchristie/Desktop/Faulkenberry,no,mono,no,18,no,white,no,yes,768,legacy,33,33,/Users/abigailchristie/Desktop/Faulkenberry/AHC01.csv,legacy,Kafkaesque Koffka,3.2.5,0,s,NA,return,NA,NA,s,491,NA,856,NA,NA,491,2,legacy,1024,2,48000,-16,experiment,HHSHH,1,odd,3127,NA,NA,58598,59795,44397,2250,NA,NA,59686,2263,NA,NA,59795,60288,59678,Flanker Task-AHC,32,15896,34,yes,1024
94.28571429,94.28571429,468.8857143,468.8857143,black,legacy,legacy,legacy,0,congruent,uniform,1,undefined,1,s,0,0,0,34,34,34,0,34,0,34,0,0,0,34,34,34,Thu Sep  6 13:51:20 2018,1500,The main experiment item,yes,FlankerTaskAHC.osexp,/Users/abigailchristie/Desktop/Faulkenberry,no,mono,no,18,no,white,no,yes,768,legacy,34,34,/Users/abigailchristie/Desktop/Faulkenberry/AHC01.csv,legacy,Kafkaesque Koffka,3.2.5,0,s,NA,return,NA,NA,s,515,NA,856,NA,NA,515,2,legacy,1024,2,48000,-16,experiment,SSSSS,1,odd,3127,NA,NA,60301,61498,44397,2250,NA,NA,61389,2263,NA,NA,61498,62015,61381,Flanker Task-AHC,33,16411,35,yes,1024
94.44444444,94.44444444,468.0277778,468.0277778,black,legacy,legacy,legacy,0,incongruent,uniform,1,undefined,1,h,0,0,0,35,35,35,0,35,0,35,0,0,0,35,35,35,Thu Sep  6 13:51:20 2018,1500,The main experiment item,yes,FlankerTaskAHC.osexp,/Users/abigailchristie/Desktop/Faulkenberry,no,mono,no,18,no,white,no,yes,768,legacy,35,35,/Users/abigailchristie/Desktop/Faulkenberry/AHC01.csv,legacy,Kafkaesque Koffka,3.2.5,0,h,NA,return,NA,NA,h,438,NA,856,NA,NA,438,2,legacy,1024,2,48000,-16,experiment,SSHSS,1,odd,3127,NA,NA,62026,63224,44397,2250,NA,NA,63115,2263,NA,NA,63224,63664,63107,Flanker Task-AHC,34,16849,36,yes,1024
94.59459459,94.59459459,469.8918919,469.8918919,black,legacy,legacy,legacy,0,incongruent,uniform,1,undefined,1,s,0,0,0,36,36,36,0,36,0,36,0,0,0,36,36,36,Thu Sep  6 13:51:20 2018,1500,The main experiment item,yes,FlankerTaskAHC.osexp,/Users/abigailchristie/Desktop/Faulkenberry,no,mono,no,18,no,white,no,yes,768,legacy,36,36,/Users/abigailchristie/Desktop/Faulkenberry/AHC01.csv,legacy,Kafkaesque Koffka,3.2.5,0,s,NA,return,NA,NA,s,537,NA,856,NA,NA,537,2,legacy,1024,2,48000,-16,experiment,HHSHH,1,odd,3127,NA,NA,63676,64876,44397,2250,NA,NA,64766,2263,NA,NA,64876,65415,64759,Flanker Task-AHC,35,17386,37,yes,1024
94.73684211,94.73684211,469.6578947,469.6578947,black,legacy,legacy,legacy,0,incongruent,uniform,1,undefined,1,s,0,0,0,37,37,37,0,37,0,37,0,0,0,37,37,37,Thu Sep  6 13:51:20 2018,1500,The main experiment item,yes,FlankerTaskAHC.osexp,/Users/abigailchristie/Desktop/Faulkenberry,no,mono,no,18,no,white,no,yes,768,legacy,37,37,/Users/abigailchristie/Desktop/Faulkenberry/AHC01.csv,legacy,Kafkaesque Koffka,3.2.5,0,s,NA,return,NA,NA,s,461,NA,856,NA,NA,461,2,legacy,1024,2,48000,-16,experiment,HHSHH,1,odd,3127,NA,NA,65428,66631,44397,2250,NA,NA,66523,2263,NA,NA,66631,67094,66515,Flanker Task-AHC,36,17847,38,yes,1024
94.87179487,94.87179487,471.2307692,471.2307692,black,legacy,legacy,legacy,0,incongruent,uniform,1,undefined,1,h,0,0,0,38,38,38,0,38,0,38,0,0,0,38,38,38,Thu Sep  6 13:51:20 2018,1500,The main experiment item,yes,FlankerTaskAHC.osexp,/Users/abigailchristie/Desktop/Faulkenberry,no,mono,no,18,no,white,no,yes,768,legacy,38,38,/Users/abigailchristie/Desktop/Faulkenberry/AHC01.csv,legacy,Kafkaesque Koffka,3.2.5,0,h,NA,return,NA,NA,h,531,NA,856,NA,NA,531,2,legacy,1024,2,48000,-16,experiment,SSHSS,1,odd,3127,NA,NA,67107,68307,44397,2250,NA,NA,68198,2263,NA,NA,68307,68839,68191,Flanker Task-AHC,37,18378,39,yes,1024
95,95,470.525,470.525,black,legacy,legacy,legacy,0,congruent,uniform,1,undefined,1,s,0,0,0,39,39,39,0,39,0,39,0,0,0,39,39,39,Thu Sep  6 13:51:20 2018,1500,The main experiment item,yes,FlankerTaskAHC.osexp,/Users/abigailchristie/Desktop/Faulkenberry,no,mono,no,18,no,white,no,yes,768,legacy,39,39,/Users/abigailchristie/Desktop/Faulkenberry/AHC01.csv,legacy,Kafkaesque Koffka,3.2.5,0,s,NA,return,NA,NA,s,443,NA,856,NA,NA,443,2,legacy,1024,2,48000,-16,experiment,SSSSS,1,odd,3127,NA,NA,68851,70050,44397,2250,NA,NA,69940,2263,NA,NA,70050,70495,69932,Flanker Task-AHC,38,18821,40,yes,1024
95.12195122,95.12195122,470.8536585,470.8536585,black,legacy,legacy,legacy,0,congruent,uniform,1,undefined,1,s,0,0,0,40,40,40,0,40,0,40,0,0,0,40,40,40,Thu Sep  6 13:51:20 2018,1500,The main experiment item,yes,FlankerTaskAHC.osexp,/Users/abigailchristie/Desktop/Faulkenberry,no,mono,no,18,no,white,no,yes,768,legacy,40,40,/Users/abigailchristie/Desktop/Faulkenberry/AHC01.csv,legacy,Kafkaesque Koffka,3.2.5,0,s,NA,return,NA,NA,s,484,NA,856,NA,NA,484,2,legacy,1024,2,48000,-16,experiment,SSSSS,1,odd,3127,NA,NA,70507,71705,44397,2250,NA,NA,71596,2263,NA,NA,71705,72192,71587,Flanker Task-AHC,39,19305,41,yes,1024
95.23809524,95.23809524,473.2142857,473.2142857,black,legacy,legacy,legacy,0,incongruent,uniform,1,undefined,1,s,0,0,0,41,41,41,0,41,0,41,0,0,0,41,41,41,Thu Sep  6 13:51:20 2018,1500,The main experiment item,yes,FlankerTaskAHC.osexp,/Users/abigailchristie/Desktop/Faulkenberry,no,mono,no,18,no,white,no,yes,768,legacy,41,41,/Users/abigailchristie/Desktop/Faulkenberry/AHC01.csv,legacy,Kafkaesque Koffka,3.2.5,0,s,NA,return,NA,NA,s,570,NA,856,NA,NA,570,2,legacy,1024,2,48000,-16,experiment,HHSHH,1,odd,3127,NA,NA,72205,73403,44397,2250,NA,NA,73295,2263,NA,NA,73403,73975,73286,Flanker Task-AHC,40,19875,42,yes,1024
95.34883721,95.34883721,474.5348837,474.5348837,black,legacy,legacy,legacy,0,incongruent,uniform,1,undefined,1,h,0,0,0,42,42,42,0,42,0,42,0,0,0,42,42,42,Thu Sep  6 13:51:20 2018,1500,The main experiment item,yes,FlankerTaskAHC.osexp,/Users/abigailchristie/Desktop/Faulkenberry,no,mono,no,18,no,white,no,yes,768,legacy,42,42,/Users/abigailchristie/Desktop/Faulkenberry/AHC01.csv,legacy,Kafkaesque Koffka,3.2.5,0,h,NA,return,NA,NA,h,530,NA,856,NA,NA,530,2,legacy,1024,2,48000,-16,experiment,SSHSS,1,odd,3127,NA,NA,73986,75187,44397,2250,NA,NA,75077,2263,NA,NA,75187,75719,75069,Flanker Task-AHC,41,20405,43,yes,1024
95.45454545,95.45454545,475.5909091,475.5909091,black,legacy,legacy,legacy,0,incongruent,uniform,1,undefined,1,h,0,0,0,43,43,43,0,43,0,43,0,0,0,43,43,43,Thu Sep  6 13:51:20 2018,1500,The main experiment item,yes,FlankerTaskAHC.osexp,/Users/abigailchristie/Desktop/Faulkenberry,no,mono,no,18,no,white,no,yes,768,legacy,43,43,/Users/abigailchristie/Desktop/Faulkenberry/AHC01.csv,legacy,Kafkaesque Koffka,3.2.5,0,h,NA,return,NA,NA,h,521,NA,856,NA,NA,521,2,legacy,1024,2,48000,-16,experiment,SSHSS,1,odd,3127,NA,NA,75732,76932,44397,2250,NA,NA,76823,2263,NA,NA,76932,77456,76815,Flanker Task-AHC,42,20926,44,yes,1024
95.55555556,95.55555556,475.5333333,475.5333333,black,legacy,legacy,legacy,0,incongruent,uniform,1,undefined,1,h,0,0,0,44,44,44,0,44,0,44,0,0,0,44,44,44,Thu Sep  6 13:51:20 2018,1500,The main experiment item,yes,FlankerTaskAHC.osexp,/Users/abigailchristie/Desktop/Faulkenberry,no,mono,no,18,no,white,no,yes,768,legacy,44,44,/Users/abigailchristie/Desktop/Faulkenberry/AHC01.csv,legacy,Kafkaesque Koffka,3.2.5,0,h,NA,return,NA,NA,h,473,NA,856,NA,NA,473,2,legacy,1024,2,48000,-16,experiment,SSHSS,1,odd,3127,NA,NA,77470,78667,44397,2250,NA,NA,78559,2263,NA,NA,78667,79142,78551,Flanker Task-AHC,43,21399,45,yes,1024
95.65217391,95.65217391,476.6304348,476.6304348,black,legacy,legacy,legacy,0,congruent,uniform,1,undefined,1,h,0,0,0,45,45,45,0,45,0,45,0,0,0,45,45,45,Thu Sep  6 13:51:20 2018,1500,The main experiment item,yes,FlankerTaskAHC.osexp,/Users/abigailchristie/Desktop/Faulkenberry,no,mono,no,18,no,white,no,yes,768,legacy,45,45,/Users/abigailchristie/Desktop/Faulkenberry/AHC01.csv,legacy,Kafkaesque Koffka,3.2.5,0,h,NA,return,NA,NA,h,526,NA,856,NA,NA,526,2,legacy,1024,2,48000,-16,experiment,HHHHH,1,odd,3127,NA,NA,79152,80351,44397,2250,NA,NA,80242,2263,NA,NA,80351,80879,80235,Flanker Task-AHC,44,21925,46,yes,1024
95.74468085,95.74468085,475.7659574,475.7659574,black,legacy,legacy,legacy,0,congruent,uniform,1,undefined,1,h,0,0,0,46,46,46,0,46,0,46,0,0,0,46,46,46,Thu Sep  6 13:51:20 2018,1500,The main experiment item,yes,FlankerTaskAHC.osexp,/Users/abigailchristie/Desktop/Faulkenberry,no,mono,no,18,no,white,no,yes,768,legacy,46,46,/Users/abigailchristie/Desktop/Faulkenberry/AHC01.csv,legacy,Kafkaesque Koffka,3.2.5,0,h,NA,return,NA,NA,h,436,NA,856,NA,NA,436,2,legacy,1024,2,48000,-16,experiment,HHHHH,1,odd,3127,NA,NA,80893,82089,44397,2250,NA,NA,81979,2263,NA,NA,82089,82526,81972,Flanker Task-AHC,45,22361,47,yes,1024
95.83333333,95.83333333,476.2916667,476.2916667,black,legacy,legacy,legacy,0,congruent,uniform,1,undefined,1,s,0,0,0,47,47,47,0,47,0,47,0,0,0,47,47,47,Thu Sep  6 13:51:20 2018,1500,The main experiment item,yes,FlankerTaskAHC.osexp,/Users/abigailchristie/Desktop/Faulkenberry,no,mono,no,18,no,white,no,yes,768,legacy,47,47,/Users/abigailchristie/Desktop/Faulkenberry/AHC01.csv,legacy,Kafkaesque Koffka,3.2.5,0,s,NA,return,NA,NA,s,501,NA,856,NA,NA,501,2,legacy,1024,2,48000,-16,experiment,SSSSS,1,odd,3127,NA,NA,82537,83736,44397,2250,NA,NA,83627,2263,NA,NA,83736,84239,83618,Flanker Task-AHC,46,22862,48,yes,1024
95.91836735,95.91836735,475.2653061,475.2653061,black,legacy,legacy,legacy,0,congruent,uniform,1,undefined,1,h,0,0,0,48,48,48,0,48,0,48,0,0,0,48,48,48,Thu Sep  6 13:51:20 2018,1500,The main experiment item,yes,FlankerTaskAHC.osexp,/Users/abigailchristie/Desktop/Faulkenberry,no,mono,no,18,no,white,no,yes,768,legacy,48,48,/Users/abigailchristie/Desktop/Faulkenberry/AHC01.csv,legacy,Kafkaesque Koffka,3.2.5,0,h,NA,return,NA,NA,h,426,NA,856,NA,NA,426,2,legacy,1024,2,48000,-16,experiment,HHHHH,1,odd,3127,NA,NA,84251,85451,44397,2250,NA,NA,85341,2263,NA,NA,85451,85879,85333,Flanker Task-AHC,47,23288,49,yes,1024
96,96,475.72,475.72,black,legacy,legacy,legacy,0,congruent,uniform,1,undefined,1,s,0,0,0,49,49,49,0,49,0,49,0,0,0,49,49,49,Thu Sep  6 13:51:20 2018,1500,The main experiment item,yes,FlankerTaskAHC.osexp,/Users/abigailchristie/Desktop/Faulkenberry,no,mono,no,18,no,white,no,yes,768,legacy,49,49,/Users/abigailchristie/Desktop/Faulkenberry/AHC01.csv,legacy,Kafkaesque Koffka,3.2.5,0,s,NA,return,NA,NA,s,498,NA,856,NA,NA,498,2,legacy,1024,2,48000,-16,experiment,SSSSS,1,odd,3127,NA,NA,85893,87091,44397,2250,NA,NA,86982,2263,NA,NA,87091,87591,86973,Flanker Task-AHC,48,23786,50,yes,1024
96.07843137,96.07843137,478.0784314,478.0784314,black,legacy,legacy,legacy,0,incongruent,uniform,1,undefined,1,s,0,0,0,50,50,50,0,50,0,50,0,0,0,50,50,50,Thu Sep  6 13:51:20 2018,1500,The main experiment item,yes,FlankerTaskAHC.osexp,/Users/abigailchristie/Desktop/Faulkenberry,no,mono,no,18,no,white,no,yes,768,legacy,50,50,/Users/abigailchristie/Desktop/Faulkenberry/AHC01.csv,legacy,Kafkaesque Koffka,3.2.5,0,s,NA,return,NA,NA,s,596,NA,856,NA,NA,596,2,legacy,1024,2,48000,-16,experiment,HHSHH,1,odd,3127,NA,NA,87602,88801,44397,2250,NA,NA,88691,2263,NA,NA,88801,89399,88683,Flanker Task-AHC,49,24382,51,yes,1024
96.15384615,96.15384615,477.8269231,477.8269231,black,legacy,legacy,legacy,0,congruent,uniform,1,undefined,1,h,0,0,0,51,51,51,0,51,0,51,0,0,0,51,51,51,Thu Sep  6 13:51:20 2018,1500,The main experiment item,yes,FlankerTaskAHC.osexp,/Users/abigailchristie/Desktop/Faulkenberry,no,mono,no,18,no,white,no,yes,768,legacy,51,51,/Users/abigailchristie/Desktop/Faulkenberry/AHC01.csv,legacy,Kafkaesque Koffka,3.2.5,0,h,NA,return,NA,NA,h,465,NA,856,NA,NA,465,2,legacy,1024,2,48000,-16,experiment,HHHHH,1,odd,3127,NA,NA,89412,90610,44397,2250,NA,NA,90501,2263,NA,NA,90611,91077,90494,Flanker Task-AHC,50,24847,52,yes,1024
96.22641509,96.22641509,478.4716981,478.4716981,black,legacy,legacy,legacy,0,congruent,uniform,1,undefined,1,s,0,0,0,52,52,52,0,52,0,52,0,0,0,52,52,52,Thu Sep  6 13:51:20 2018,1500,The main experiment item,yes,FlankerTaskAHC.osexp,/Users/abigailchristie/Desktop/Faulkenberry,no,mono,no,18,no,white,no,yes,768,legacy,52,52,/Users/abigailchristie/Desktop/Faulkenberry/AHC01.csv,legacy,Kafkaesque Koffka,3.2.5,0,s,NA,return,NA,NA,s,512,NA,856,NA,NA,512,2,legacy,1024,2,48000,-16,experiment,SSSSS,1,odd,3127,NA,NA,91090,92292,44397,2250,NA,NA,92183,2263,NA,NA,92292,92806,92175,Flanker Task-AHC,51,25359,53,yes,1024
96.2962963,96.2962963,478.6666667,478.6666667,black,legacy,legacy,legacy,0,incongruent,uniform,1,undefined,1,s,0,0,0,53,53,53,0,53,0,53,0,0,0,53,53,53,Thu Sep  6 13:51:20 2018,1500,The main experiment item,yes,FlankerTaskAHC.osexp,/Users/abigailchristie/Desktop/Faulkenberry,no,mono,no,18,no,white,no,yes,768,legacy,53,53,/Users/abigailchristie/Desktop/Faulkenberry/AHC01.csv,legacy,Kafkaesque Koffka,3.2.5,0,s,NA,return,NA,NA,s,489,NA,856,NA,NA,489,2,legacy,1024,2,48000,-16,experiment,HHSHH,1,odd,3127,NA,NA,92820,94019,44397,2250,NA,NA,93910,2263,NA,NA,94019,94510,93902,Flanker Task-AHC,52,25848,54,yes,1024
94.54545455,94.54545455,477.3818182,477.3818182,black,legacy,legacy,legacy,0,incongruent,uniform,0,undefined,0,s,0,0,0,54,54,54,0,54,0,54,0,0,0,54,54,54,Thu Sep  6 13:51:20 2018,1500,The main experiment item,yes,FlankerTaskAHC.osexp,/Users/abigailchristie/Desktop/Faulkenberry,no,mono,no,18,no,white,no,yes,768,legacy,54,54,/Users/abigailchristie/Desktop/Faulkenberry/AHC01.csv,legacy,Kafkaesque Koffka,3.2.5,0,h,NA,return,NA,NA,h,408,NA,856,NA,NA,408,2,legacy,1024,2,48000,-16,experiment,HHSHH,1,odd,3127,NA,NA,94524,95723,44397,2250,NA,NA,95614,2263,NA,NA,95723,96133,95606,Flanker Task-AHC,52,26256,55,yes,1024
94.64285714,94.64285714,476.4464286,476.4464286,black,legacy,legacy,legacy,0,congruent,uniform,1,undefined,1,h,0,0,0,55,55,55,0,55,0,55,0,0,0,55,55,55,Thu Sep  6 13:51:20 2018,1500,The main experiment item,yes,FlankerTaskAHC.osexp,/Users/abigailchristie/Desktop/Faulkenberry,no,mono,no,18,no,white,no,yes,768,legacy,55,55,/Users/abigailchristie/Desktop/Faulkenberry/AHC01.csv,legacy,Kafkaesque Koffka,3.2.5,0,h,NA,return,NA,NA,h,425,NA,856,NA,NA,425,2,legacy,1024,2,48000,-16,experiment,HHHHH,1,odd,3127,NA,NA,96653,97851,96144,2250,NA,NA,97741,2263,NA,NA,97851,98279,97733,Flanker Task-AHC,53,26681,56,yes,1024
94.73684211,94.73684211,476.4385965,476.4385965,black,legacy,legacy,legacy,0,incongruent,uniform,1,undefined,1,s,0,0,0,56,56,56,0,56,0,56,0,0,0,56,56,56,Thu Sep  6 13:51:20 2018,1500,The main experiment item,yes,FlankerTaskAHC.osexp,/Users/abigailchristie/Desktop/Faulkenberry,no,mono,no,18,no,white,no,yes,768,legacy,56,56,/Users/abigailchristie/Desktop/Faulkenberry/AHC01.csv,legacy,Kafkaesque Koffka,3.2.5,0,s,NA,return,NA,NA,s,476,NA,856,NA,NA,476,2,legacy,1024,2,48000,-16,experiment,HHSHH,1,odd,3127,NA,NA,98290,99488,96144,2250,NA,NA,99379,2263,NA,NA,99488,99966,99371,Flanker Task-AHC,54,27157,57,yes,1024
94.82758621,94.82758621,476.7068966,476.7068966,black,legacy,legacy,legacy,0,congruent,uniform,1,undefined,1,s,0,0,0,57,57,57,0,57,0,57,0,0,0,57,57,57,Thu Sep  6 13:51:20 2018,1500,The main experiment item,yes,FlankerTaskAHC.osexp,/Users/abigailchristie/Desktop/Faulkenberry,no,mono,no,18,no,white,no,yes,768,legacy,57,57,/Users/abigailchristie/Desktop/Faulkenberry/AHC01.csv,legacy,Kafkaesque Koffka,3.2.5,0,s,NA,return,NA,NA,s,492,NA,856,NA,NA,492,2,legacy,1024,2,48000,-16,experiment,SSSSS,1,odd,3127,NA,NA,99978,101175,96144,2250,NA,NA,101066,2263,NA,NA,101176,101670,101058,Flanker Task-AHC,55,27649,58,yes,1024
94.91525424,94.91525424,476.2542373,476.2542373,black,legacy,legacy,legacy,0,congruent,uniform,1,undefined,1,s,0,0,0,58,58,58,0,58,0,58,0,0,0,58,58,58,Thu Sep  6 13:51:20 2018,1500,The main experiment item,yes,FlankerTaskAHC.osexp,/Users/abigailchristie/Desktop/Faulkenberry,no,mono,no,18,no,white,no,yes,768,legacy,58,58,/Users/abigailchristie/Desktop/Faulkenberry/AHC01.csv,legacy,Kafkaesque Koffka,3.2.5,0,s,NA,return,NA,NA,s,450,NA,856,NA,NA,450,2,legacy,1024,2,48000,-16,experiment,SSSSS,1,odd,3127,NA,NA,101683,102882,96144,2250,NA,NA,102773,2263,NA,NA,102882,103334,102765,Flanker Task-AHC,56,28099,59,yes,1024
95,95,476.8666667,476.8666667,black,legacy,legacy,legacy,0,congruent,uniform,1,undefined,1,h,0,0,0,59,59,59,0,59,0,59,0,0,0,59,59,59,Thu Sep  6 13:51:20 2018,1500,The main experiment item,yes,FlankerTaskAHC.osexp,/Users/abigailchristie/Desktop/Faulkenberry,no,mono,no,18,no,white,no,yes,768,legacy,59,59,/Users/abigailchristie/Desktop/Faulkenberry/AHC01.csv,legacy,Kafkaesque Koffka,3.2.5,0,h,NA,return,NA,NA,h,513,NA,856,NA,NA,513,2,legacy,1024,2,48000,-16,experiment,HHHHH,1,odd,3127,NA,NA,103345,104546,96144,2250,NA,NA,104437,2263,NA,NA,104546,105062,104429,Flanker Task-AHC,57,28612,60,yes,1024
95.08196721,95.08196721,477.5245902,477.5245902,black,legacy,legacy,legacy,0,incongruent,uniform,1,undefined,1,h,0,0,0,60,60,60,0,60,0,60,0,0,0,60,60,60,Thu Sep  6 13:51:20 2018,1500,The main experiment item,yes,FlankerTaskAHC.osexp,/Users/abigailchristie/Desktop/Faulkenberry,no,mono,no,18,no,white,no,yes,768,legacy,60,60,/Users/abigailchristie/Desktop/Faulkenberry/AHC01.csv,legacy,Kafkaesque Koffka,3.2.5,0,h,NA,return,NA,NA,h,517,NA,856,NA,NA,517,2,legacy,1024,2,48000,-16,experiment,SSHSS,1,odd,3127,NA,NA,105076,106278,96144,2250,NA,NA,106169,2263,NA,NA,106279,106799,106161,Flanker Task-AHC,58,29129,61,yes,1024
95.16129032,95.16129032,476.7741935,476.7741935,black,legacy,legacy,legacy,0,congruent,uniform,1,undefined,1,h,0,0,0,61,61,61,0,61,0,61,0,0,0,61,61,61,Thu Sep  6 13:51:20 2018,1500,The main experiment item,yes,FlankerTaskAHC.osexp,/Users/abigailchristie/Desktop/Faulkenberry,no,mono,no,18,no,white,no,yes,768,legacy,61,61,/Users/abigailchristie/Desktop/Faulkenberry/AHC01.csv,legacy,Kafkaesque Koffka,3.2.5,0,h,NA,return,NA,NA,h,431,NA,856,NA,NA,431,2,legacy,1024,2,48000,-16,experiment,HHHHH,1,odd,3127,NA,NA,106811,108012,96144,2250,NA,NA,107904,2263,NA,NA,108013,108446,107896,Flanker Task-AHC,59,29560,62,yes,1024
95.23809524,95.23809524,477.7777778,477.7777778,black,legacy,legacy,legacy,0,congruent,uniform,1,undefined,1,s,0,0,0,62,62,62,0,62,0,62,0,0,0,62,62,62,Thu Sep  6 13:51:20 2018,1500,The main experiment item,yes,FlankerTaskAHC.osexp,/Users/abigailchristie/Desktop/Faulkenberry,no,mono,no,18,no,white,no,yes,768,legacy,62,62,/Users/abigailchristie/Desktop/Faulkenberry/AHC01.csv,legacy,Kafkaesque Koffka,3.2.5,0,s,NA,return,NA,NA,s,540,NA,856,NA,NA,540,2,legacy,1024,2,48000,-16,experiment,SSSSS,1,odd,3127,NA,NA,108457,109656,96144,2250,NA,NA,109545,2263,NA,NA,109656,110198,109538,Flanker Task-AHC,60,30100,63,yes,1024
95.3125,95.3125,477.84375,477.84375,black,legacy,legacy,legacy,0,congruent,uniform,1,undefined,1,h,0,0,0,63,63,63,0,63,0,63,0,0,0,63,63,63,Thu Sep  6 13:51:20 2018,1500,The main experiment item,yes,FlankerTaskAHC.osexp,/Users/abigailchristie/Desktop/Faulkenberry,no,mono,no,18,no,white,no,yes,768,legacy,63,63,/Users/abigailchristie/Desktop/Faulkenberry/AHC01.csv,legacy,Kafkaesque Koffka,3.2.5,0,h,NA,return,NA,NA,h,482,NA,856,NA,NA,482,2,legacy,1024,2,48000,-16,experiment,HHHHH,1,odd,3127,NA,NA,110212,111410,96144,2250,NA,NA,111301,2263,NA,NA,111410,111894,111293,Flanker Task-AHC,61,30582,64,yes,1024
95.38461538,95.38461538,477.9230769,477.9230769,black,legacy,legacy,legacy,0,congruent,uniform,1,undefined,1,s,0,0,0,64,64,64,0,64,0,64,0,0,0,64,64,64,Thu Sep  6 13:51:20 2018,1500,The main experiment item,yes,FlankerTaskAHC.osexp,/Users/abigailchristie/Desktop/Faulkenberry,no,mono,no,18,no,white,no,yes,768,legacy,64,64,/Users/abigailchristie/Desktop/Faulkenberry/AHC01.csv,legacy,Kafkaesque Koffka,3.2.5,0,s,NA,return,NA,NA,s,483,NA,856,NA,NA,483,2,legacy,1024,2,48000,-16,experiment,SSSSS,1,odd,3127,NA,NA,111907,113105,96144,2250,NA,NA,112996,2263,NA,NA,113105,113590,112989,Flanker Task-AHC,62,31065,65,yes,1024
95.45454545,95.45454545,478.4848485,478.4848485,black,legacy,legacy,legacy,0,incongruent,uniform,1,undefined,1,s,0,0,0,65,65,65,0,65,0,65,0,0,0,65,65,65,Thu Sep  6 13:51:20 2018,1500,The main experiment item,yes,FlankerTaskAHC.osexp,/Users/abigailchristie/Desktop/Faulkenberry,no,mono,no,18,no,white,no,yes,768,legacy,65,65,/Users/abigailchristie/Desktop/Faulkenberry/AHC01.csv,legacy,Kafkaesque Koffka,3.2.5,0,s,NA,return,NA,NA,s,515,NA,856,NA,NA,515,2,legacy,1024,2,48000,-16,experiment,HHSHH,1,odd,3127,NA,NA,113602,114800,96144,2250,NA,NA,114691,2263,NA,NA,114801,115318,114683,Flanker Task-AHC,63,31580,66,yes,1024
95.52238806,95.52238806,478.5820896,478.5820896,black,legacy,legacy,legacy,0,incongruent,uniform,1,undefined,1,h,0,0,0,66,66,66,0,66,0,66,0,0,0,66,66,66,Thu Sep  6 13:51:20 2018,1500,The main experiment item,yes,FlankerTaskAHC.osexp,/Users/abigailchristie/Desktop/Faulkenberry,no,mono,no,18,no,white,no,yes,768,legacy,66,66,/Users/abigailchristie/Desktop/Faulkenberry/AHC01.csv,legacy,Kafkaesque Koffka,3.2.5,0,h,NA,return,NA,NA,h,485,NA,856,NA,NA,485,2,legacy,1024,2,48000,-16,experiment,SSHSS,1,odd,3127,NA,NA,115329,116534,96144,2250,NA,NA,116424,2263,NA,NA,116534,117020,116416,Flanker Task-AHC,64,32065,67,yes,1024
95.58823529,95.58823529,478.3970588,478.3970588,black,legacy,legacy,legacy,0,congruent,uniform,1,undefined,1,h,0,0,0,67,67,67,0,67,0,67,0,0,0,67,67,67,Thu Sep  6 13:51:20 2018,1500,The main experiment item,yes,FlankerTaskAHC.osexp,/Users/abigailchristie/Desktop/Faulkenberry,no,mono,no,18,no,white,no,yes,768,legacy,67,67,/Users/abigailchristie/Desktop/Faulkenberry/AHC01.csv,legacy,Kafkaesque Koffka,3.2.5,0,h,NA,return,NA,NA,h,466,NA,856,NA,NA,466,2,legacy,1024,2,48000,-16,experiment,HHHHH,1,odd,3127,NA,NA,117033,118233,96144,2250,NA,NA,118124,2263,NA,NA,118234,118702,118116,Flanker Task-AHC,65,32531,68,yes,1024
95.65217391,95.65217391,479.5362319,479.5362319,black,legacy,legacy,legacy,0,congruent,uniform,1,undefined,1,s,0,0,0,68,68,68,0,68,0,68,0,0,0,68,68,68,Thu Sep  6 13:51:20 2018,1500,The main experiment item,yes,FlankerTaskAHC.osexp,/Users/abigailchristie/Desktop/Faulkenberry,no,mono,no,18,no,white,no,yes,768,legacy,68,68,/Users/abigailchristie/Desktop/Faulkenberry/AHC01.csv,legacy,Kafkaesque Koffka,3.2.5,0,s,NA,return,NA,NA,s,557,NA,856,NA,NA,557,2,legacy,1024,2,48000,-16,experiment,SSSSS,1,odd,3127,NA,NA,118712,119910,96144,2250,NA,NA,119801,2263,NA,NA,119911,120470,119793,Flanker Task-AHC,66,33088,69,yes,1024
95.71428571,95.71428571,479.8,479.8,black,legacy,legacy,legacy,0,congruent,uniform,1,undefined,1,s,0,0,0,69,69,69,0,69,0,69,0,0,0,69,69,69,Thu Sep  6 13:51:20 2018,1500,The main experiment item,yes,FlankerTaskAHC.osexp,/Users/abigailchristie/Desktop/Faulkenberry,no,mono,no,18,no,white,no,yes,768,legacy,69,69,/Users/abigailchristie/Desktop/Faulkenberry/AHC01.csv,legacy,Kafkaesque Koffka,3.2.5,0,s,NA,return,NA,NA,s,498,NA,856,NA,NA,498,2,legacy,1024,2,48000,-16,experiment,SSSSS,1,odd,3127,NA,NA,120483,121681,96144,2250,NA,NA,121572,2263,NA,NA,121681,122182,121564,Flanker Task-AHC,67,33586,70,yes,1024
95.77464789,95.77464789,479.9577465,479.9577465,black,legacy,legacy,legacy,0,congruent,uniform,1,undefined,1,s,0,0,0,70,70,70,0,70,0,70,0,0,0,70,70,70,Thu Sep  6 13:51:20 2018,1500,The main experiment item,yes,FlankerTaskAHC.osexp,/Users/abigailchristie/Desktop/Faulkenberry,no,mono,no,18,no,white,no,yes,768,legacy,70,70,/Users/abigailchristie/Desktop/Faulkenberry/AHC01.csv,legacy,Kafkaesque Koffka,3.2.5,0,s,NA,return,NA,NA,s,491,NA,856,NA,NA,491,2,legacy,1024,2,48000,-16,experiment,SSSSS,1,odd,3127,NA,NA,122194,123392,96144,2250,NA,NA,123284,2263,NA,NA,123392,123886,123275,Flanker Task-AHC,68,34077,71,yes,1024
95.83333333,95.83333333,482.3472222,482.3472222,black,legacy,legacy,legacy,0,incongruent,uniform,1,undefined,1,s,0,0,0,71,71,71,0,71,0,71,0,0,0,71,71,71,Thu Sep  6 13:51:20 2018,1500,The main experiment item,yes,FlankerTaskAHC.osexp,/Users/abigailchristie/Desktop/Faulkenberry,no,mono,no,18,no,white,no,yes,768,legacy,71,71,/Users/abigailchristie/Desktop/Faulkenberry/AHC01.csv,legacy,Kafkaesque Koffka,3.2.5,0,s,NA,return,NA,NA,s,652,NA,856,NA,NA,652,2,legacy,1024,2,48000,-16,experiment,HHSHH,1,odd,3127,NA,NA,123897,125095,96144,2250,NA,NA,124986,2263,NA,NA,125095,125750,124978,Flanker Task-AHC,69,34729,72,yes,1024
95.89041096,95.89041096,482.1506849,482.1506849,black,legacy,legacy,legacy,0,incongruent,uniform,1,undefined,1,h,0,0,0,72,72,72,0,72,0,72,0,0,0,72,72,72,Thu Sep  6 13:51:20 2018,1500,The main experiment item,yes,FlankerTaskAHC.osexp,/Users/abigailchristie/Desktop/Faulkenberry,no,mono,no,18,no,white,no,yes,768,legacy,72,72,/Users/abigailchristie/Desktop/Faulkenberry/AHC01.csv,legacy,Kafkaesque Koffka,3.2.5,0,h,NA,return,NA,NA,h,468,NA,856,NA,NA,468,2,legacy,1024,2,48000,-16,experiment,SSHSS,1,odd,3127,NA,NA,125761,126959,96144,2250,NA,NA,126850,2263,NA,NA,126959,127429,126842,Flanker Task-AHC,70,35197,73,yes,1024
95.94594595,95.94594595,483.7837838,483.7837838,black,legacy,legacy,legacy,0,incongruent,uniform,1,undefined,1,h,0,0,0,73,73,73,0,73,0,73,0,0,0,73,73,73,Thu Sep  6 13:51:20 2018,1500,The main experiment item,yes,FlankerTaskAHC.osexp,/Users/abigailchristie/Desktop/Faulkenberry,no,mono,no,18,no,white,no,yes,768,legacy,73,73,/Users/abigailchristie/Desktop/Faulkenberry/AHC01.csv,legacy,Kafkaesque Koffka,3.2.5,0,h,NA,return,NA,NA,h,603,NA,856,NA,NA,603,2,legacy,1024,2,48000,-16,experiment,SSHSS,1,odd,3127,NA,NA,127441,128640,96144,2250,NA,NA,128531,2263,NA,NA,128640,129245,128522,Flanker Task-AHC,71,35800,74,yes,1024
96,96,483.44,483.44,black,legacy,legacy,legacy,0,incongruent,uniform,1,undefined,1,h,0,0,0,74,74,74,0,74,0,74,0,0,0,74,74,74,Thu Sep  6 13:51:20 2018,1500,The main experiment item,yes,FlankerTaskAHC.osexp,/Users/abigailchristie/Desktop/Faulkenberry,no,mono,no,18,no,white,no,yes,768,legacy,74,74,/Users/abigailchristie/Desktop/Faulkenberry/AHC01.csv,legacy,Kafkaesque Koffka,3.2.5,0,h,NA,return,NA,NA,h,458,NA,856,NA,NA,458,2,legacy,1024,2,48000,-16,experiment,SSHSS,1,odd,3127,NA,NA,129257,130457,96144,2250,NA,NA,130347,2263,NA,NA,130457,130917,130339,Flanker Task-AHC,72,36258,75,yes,1024
96.05263158,96.05263158,484.0526316,484.0526316,black,legacy,legacy,legacy,0,incongruent,uniform,1,undefined,1,s,0,0,0,75,75,75,0,75,0,75,0,0,0,75,75,75,Thu Sep  6 13:51:20 2018,1500,The main experiment item,yes,FlankerTaskAHC.osexp,/Users/abigailchristie/Desktop/Faulkenberry,no,mono,no,18,no,white,no,yes,768,legacy,75,75,/Users/abigailchristie/Desktop/Faulkenberry/AHC01.csv,legacy,Kafkaesque Koffka,3.2.5,0,s,NA,return,NA,NA,s,530,NA,856,NA,NA,530,2,legacy,1024,2,48000,-16,experiment,HHSHH,1,odd,3127,NA,NA,130929,132129,96144,2250,NA,NA,132019,2263,NA,NA,132129,132661,132012,Flanker Task-AHC,73,36788,76,yes,1024
96.1038961,96.1038961,484.2727273,484.2727273,black,legacy,legacy,legacy,0,incongruent,uniform,1,undefined,1,s,0,0,0,76,76,76,0,76,0,76,0,0,0,76,76,76,Thu Sep  6 13:51:20 2018,1500,The main experiment item,yes,FlankerTaskAHC.osexp,/Users/abigailchristie/Desktop/Faulkenberry,no,mono,no,18,no,white,no,yes,768,legacy,76,76,/Users/abigailchristie/Desktop/Faulkenberry/AHC01.csv,legacy,Kafkaesque Koffka,3.2.5,0,s,NA,return,NA,NA,s,501,NA,856,NA,NA,501,2,legacy,1024,2,48000,-16,experiment,HHSHH,1,odd,3127,NA,NA,132672,133870,96144,2250,NA,NA,133760,2263,NA,NA,133870,134373,133753,Flanker Task-AHC,74,37289,77,yes,1024
96.15384615,96.15384615,483.6410256,483.6410256,black,legacy,legacy,legacy,0,congruent,uniform,1,undefined,1,s,0,0,0,77,77,77,0,77,0,77,0,0,0,77,77,77,Thu Sep  6 13:51:20 2018,1500,The main experiment item,yes,FlankerTaskAHC.osexp,/Users/abigailchristie/Desktop/Faulkenberry,no,mono,no,18,no,white,no,yes,768,legacy,77,77,/Users/abigailchristie/Desktop/Faulkenberry/AHC01.csv,legacy,Kafkaesque Koffka,3.2.5,0,s,NA,return,NA,NA,s,435,NA,856,NA,NA,435,2,legacy,1024,2,48000,-16,experiment,SSSSS,1,odd,3127,NA,NA,134384,135582,96144,2250,NA,NA,135473,2263,NA,NA,135583,136021,135465,Flanker Task-AHC,75,37724,78,yes,1024
96.20253165,96.20253165,483.2658228,483.2658228,black,legacy,legacy,legacy,0,congruent,uniform,1,undefined,1,s,0,0,0,78,78,78,0,78,0,78,0,0,0,78,78,78,Thu Sep  6 13:51:20 2018,1500,The main experiment item,yes,FlankerTaskAHC.osexp,/Users/abigailchristie/Desktop/Faulkenberry,no,mono,no,18,no,white,no,yes,768,legacy,78,78,/Users/abigailchristie/Desktop/Faulkenberry/AHC01.csv,legacy,Kafkaesque Koffka,3.2.5,0,s,NA,return,NA,NA,s,454,NA,856,NA,NA,454,2,legacy,1024,2,48000,-16,experiment,SSSSS,1,odd,3127,NA,NA,136030,137229,96144,2250,NA,NA,137119,2263,NA,NA,137229,137685,137112,Flanker Task-AHC,76,38178,79,yes,1024
96.25,96.25,484.0375,484.0375,black,legacy,legacy,legacy,0,incongruent,uniform,1,undefined,1,h,0,0,0,79,79,79,0,79,0,79,0,0,0,79,79,79,Thu Sep  6 13:51:20 2018,1500,The main experiment item,yes,FlankerTaskAHC.osexp,/Users/abigailchristie/Desktop/Faulkenberry,no,mono,no,18,no,white,no,yes,768,legacy,79,79,/Users/abigailchristie/Desktop/Faulkenberry/AHC01.csv,legacy,Kafkaesque Koffka,3.2.5,0,h,NA,return,NA,NA,h,545,NA,856,NA,NA,545,2,legacy,1024,2,48000,-16,experiment,SSHSS,1,odd,3127,NA,NA,137697,138898,96144,2250,NA,NA,138788,2263,NA,NA,138898,139445,138780,Flanker Task-AHC,77,38723,80,yes,1024
96.2962963,96.2962963,485.5432099,485.5432099,black,legacy,legacy,legacy,0,incongruent,uniform,1,undefined,1,s,0,0,0,80,80,80,0,80,0,80,0,0,0,80,80,80,Thu Sep  6 13:51:20 2018,600,The main experiment item,yes,FlankerTaskAHC.osexp,/Users/abigailchristie/Desktop/Faulkenberry,no,mono,no,18,no,white,no,yes,768,legacy,0,79,/Users/abigailchristie/Desktop/Faulkenberry/AHC01.csv,legacy,Kafkaesque Koffka,3.2.5,0,s,NA,return,h,NA,s,606,NA,856,5151,NA,606,2,legacy,1024,2,48000,-16,experiment,HHSHH,1,odd,3127,145633,NA,139456,145824,96144,2250,NA,NA,145715,2263,140480,NA,145824,146432,145707,Flanker Task-AHC,78,39329,81,yes,1024
96.34146341,96.34146341,483.6463415,483.6463415,black,legacy,legacy,legacy,0,congruent,uniform,1,undefined,1,s,0,0,0,81,81,81,0,81,0,81,0,0,0,81,81,81,Thu Sep  6 13:51:20 2018,600,The main experiment item,yes,FlankerTaskAHC.osexp,/Users/abigailchristie/Desktop/Faulkenberry,no,mono,no,18,no,white,no,yes,768,legacy,1,79,/Users/abigailchristie/Desktop/Faulkenberry/AHC01.csv,legacy,Kafkaesque Koffka,3.2.5,0,s,NA,return,h,NA,s,330,NA,856,5151,NA,330,2,legacy,1024,2,48000,-16,experiment,SSSSS,1,odd,3127,145633,NA,146953,148149,96144,2250,146444,NA,148041,2263,140480,NA,148149,148481,148034,Flanker Task-AHC,79,39659,82,yes,1024
96.38554217,96.38554217,481.7710843,481.7710843,black,legacy,legacy,legacy,0,incongruent,uniform,1,undefined,1,s,0,0,0,82,82,82,0,82,0,82,0,0,0,82,82,82,Thu Sep  6 13:51:20 2018,600,The main experiment item,yes,FlankerTaskAHC.osexp,/Users/abigailchristie/Desktop/Faulkenberry,no,mono,no,18,no,white,no,yes,768,legacy,2,79,/Users/abigailchristie/Desktop/Faulkenberry/AHC01.csv,legacy,Kafkaesque Koffka,3.2.5,0,s,NA,return,h,NA,s,328,NA,856,5151,NA,328,2,legacy,1024,2,48000,-16,experiment,HHSHH,1,odd,3127,145633,NA,148495,149694,96144,2250,146444,NA,149584,2263,140480,NA,149694,150024,149576,Flanker Task-AHC,80,39987,83,yes,1024
95.23809524,95.23809524,479.4285714,479.4285714,black,legacy,legacy,legacy,0,incongruent,uniform,0,undefined,0,h,0,0,0,83,83,83,0,83,0,83,0,0,0,83,83,83,Thu Sep  6 13:51:20 2018,600,The main experiment item,yes,FlankerTaskAHC.osexp,/Users/abigailchristie/Desktop/Faulkenberry,no,mono,no,18,no,white,no,yes,768,legacy,3,79,/Users/abigailchristie/Desktop/Faulkenberry/AHC01.csv,legacy,Kafkaesque Koffka,3.2.5,0,s,NA,return,h,NA,s,285,NA,856,5151,NA,285,2,legacy,1024,2,48000,-16,experiment,SSHSS,1,odd,3127,145633,NA,150036,151234,96144,2250,146444,NA,151125,2263,140480,NA,151234,151521,151117,Flanker Task-AHC,80,40272,84,yes,1024
95.29411765,95.29411765,478.2705882,478.2705882,black,legacy,legacy,legacy,0,incongruent,uniform,1,undefined,1,h,0,0,0,84,84,84,0,84,0,84,0,0,0,84,84,84,Thu Sep  6 13:51:20 2018,600,The main experiment item,yes,FlankerTaskAHC.osexp,/Users/abigailchristie/Desktop/Faulkenberry,no,mono,no,18,no,white,no,yes,768,legacy,4,79,/Users/abigailchristie/Desktop/Faulkenberry/AHC01.csv,legacy,Kafkaesque Koffka,3.2.5,0,h,NA,return,h,NA,h,381,NA,856,5151,NA,381,2,legacy,1024,2,48000,-16,experiment,SSHSS,1,odd,3127,145633,NA,152040,153241,151532,2250,146444,NA,153132,2263,140480,NA,153241,153624,153124,Flanker Task-AHC,81,40653,85,yes,1024
95.34883721,95.34883721,477.5813953,477.5813953,black,legacy,legacy,legacy,0,congruent,uniform,1,undefined,1,h,0,0,0,85,85,85,0,85,0,85,0,0,0,85,85,85,Thu Sep  6 13:51:20 2018,600,The main experiment item,yes,FlankerTaskAHC.osexp,/Users/abigailchristie/Desktop/Faulkenberry,no,mono,no,18,no,white,no,yes,768,legacy,5,79,/Users/abigailchristie/Desktop/Faulkenberry/AHC01.csv,legacy,Kafkaesque Koffka,3.2.5,0,h,NA,return,h,NA,h,419,NA,856,5151,NA,419,2,legacy,1024,2,48000,-16,experiment,HHHHH,1,odd,3127,145633,NA,153636,154834,151532,2250,146444,NA,154725,2263,140480,NA,154835,155257,154717,Flanker Task-AHC,82,41072,86,yes,1024
95.40229885,95.40229885,476.2643678,476.2643678,black,legacy,legacy,legacy,0,congruent,uniform,1,undefined,1,s,0,0,0,86,86,86,0,86,0,86,0,0,0,86,86,86,Thu Sep  6 13:51:20 2018,600,The main experiment item,yes,FlankerTaskAHC.osexp,/Users/abigailchristie/Desktop/Faulkenberry,no,mono,no,18,no,white,no,yes,768,legacy,6,79,/Users/abigailchristie/Desktop/Faulkenberry/AHC01.csv,legacy,Kafkaesque Koffka,3.2.5,0,s,NA,return,h,NA,s,363,NA,856,5151,NA,363,2,legacy,1024,2,48000,-16,experiment,SSSSS,1,odd,3127,145633,NA,155271,156466,151532,2250,146444,NA,156358,2263,140480,NA,156467,156833,156351,Flanker Task-AHC,83,41435,87,yes,1024
95.45454545,95.45454545,474.4204545,474.4204545,black,legacy,legacy,legacy,0,incongruent,uniform,1,undefined,1,h,0,0,0,87,87,87,0,87,0,87,0,0,0,87,87,87,Thu Sep  6 13:51:20 2018,600,The main experiment item,yes,FlankerTaskAHC.osexp,/Users/abigailchristie/Desktop/Faulkenberry,no,mono,no,18,no,white,no,yes,768,legacy,7,79,/Users/abigailchristie/Desktop/Faulkenberry/AHC01.csv,legacy,Kafkaesque Koffka,3.2.5,0,h,NA,return,h,NA,h,314,NA,856,5151,NA,314,2,legacy,1024,2,48000,-16,experiment,SSHSS,1,odd,3127,145633,NA,156842,158044,151532,2250,146444,NA,157934,2263,140480,NA,158044,158360,157927,Flanker Task-AHC,84,41749,88,yes,1024
95.50561798,95.50561798,472.1685393,472.1685393,black,legacy,legacy,legacy,0,congruent,uniform,1,undefined,1,s,0,0,0,88,88,88,0,88,0,88,0,0,0,88,88,88,Thu Sep  6 13:51:20 2018,600,The main experiment item,yes,FlankerTaskAHC.osexp,/Users/abigailchristie/Desktop/Faulkenberry,no,mono,no,18,no,white,no,yes,768,legacy,8,79,/Users/abigailchristie/Desktop/Faulkenberry/AHC01.csv,legacy,Kafkaesque Koffka,3.2.5,0,s,NA,return,h,NA,s,274,NA,856,5151,NA,274,2,legacy,1024,2,48000,-16,experiment,SSSSS,1,odd,3127,145633,NA,158374,159571,151532,2250,146444,NA,159462,2263,140480,NA,159572,159848,159454,Flanker Task-AHC,85,42023,89,yes,1024
94.44444444,94.44444444,470.0777778,470.0777778,black,legacy,legacy,legacy,0,congruent,uniform,0,undefined,0,s,0,0,0,89,89,89,0,89,0,89,0,0,0,89,89,89,Thu Sep  6 13:51:20 2018,600,The main experiment item,yes,FlankerTaskAHC.osexp,/Users/abigailchristie/Desktop/Faulkenberry,no,mono,no,18,no,white,no,yes,768,legacy,9,79,/Users/abigailchristie/Desktop/Faulkenberry/AHC01.csv,legacy,Kafkaesque Koffka,3.2.5,0,h,NA,return,h,NA,h,284,NA,856,5151,NA,284,2,legacy,1024,2,48000,-16,experiment,SSSSS,1,odd,3127,145633,NA,159861,161058,151532,2250,146444,NA,160949,2263,140480,NA,161058,161344,160941,Flanker Task-AHC,85,42307,90,yes,1024
94.50549451,94.50549451,468.2417582,468.2417582,black,legacy,legacy,legacy,0,congruent,uniform,1,undefined,1,s,0,0,0,90,90,90,0,90,0,90,0,0,0,90,90,90,Thu Sep  6 13:51:20 2018,600,The main experiment item,yes,FlankerTaskAHC.osexp,/Users/abigailchristie/Desktop/Faulkenberry,no,mono,no,18,no,white,no,yes,768,legacy,10,79,/Users/abigailchristie/Desktop/Faulkenberry/AHC01.csv,legacy,Kafkaesque Koffka,3.2.5,0,s,NA,return,h,NA,s,303,NA,856,5151,NA,303,2,legacy,1024,2,48000,-16,experiment,SSSSS,1,odd,3127,145633,NA,161865,163063,161357,2250,146444,NA,162954,2263,140480,NA,163063,163368,162946,Flanker Task-AHC,86,42610,91,yes,1024
94.56521739,94.56521739,468.2173913,468.2173913,black,legacy,legacy,legacy,0,incongruent,uniform,1,undefined,1,s,0,0,0,91,91,91,0,91,0,91,0,0,0,91,91,91,Thu Sep  6 13:51:20 2018,600,The main experiment item,yes,FlankerTaskAHC.osexp,/Users/abigailchristie/Desktop/Faulkenberry,no,mono,no,18,no,white,no,yes,768,legacy,11,79,/Users/abigailchristie/Desktop/Faulkenberry/AHC01.csv,legacy,Kafkaesque Koffka,3.2.5,0,s,NA,return,h,NA,s,466,NA,856,5151,NA,466,2,legacy,1024,2,48000,-16,experiment,HHSHH,1,odd,3127,145633,NA,163379,164579,161357,2250,146444,NA,164468,2263,140480,NA,164579,165048,164461,Flanker Task-AHC,87,43076,92,yes,1024
93.5483871,93.5483871,466.7741935,466.7741935,black,legacy,legacy,legacy,0,incongruent,uniform,0,undefined,0,h,0,0,0,92,92,92,0,92,0,92,0,0,0,92,92,92,Thu Sep  6 13:51:20 2018,600,The main experiment item,yes,FlankerTaskAHC.osexp,/Users/abigailchristie/Desktop/Faulkenberry,no,mono,no,18,no,white,no,yes,768,legacy,12,79,/Users/abigailchristie/Desktop/Faulkenberry/AHC01.csv,legacy,Kafkaesque Koffka,3.2.5,0,s,NA,return,h,NA,s,334,NA,856,5151,NA,334,2,legacy,1024,2,48000,-16,experiment,SSHSS,1,odd,3127,145633,NA,165063,166264,161357,2250,146444,NA,166154,2263,140480,NA,166264,166600,166146,Flanker Task-AHC,87,43410,93,yes,1024
93.61702128,93.61702128,467.2234043,467.2234043,black,legacy,legacy,legacy,0,incongruent,uniform,1,undefined,1,s,0,0,0,93,93,93,0,93,0,93,0,0,0,93,93,93,Thu Sep  6 13:51:20 2018,600,The main experiment item,yes,FlankerTaskAHC.osexp,/Users/abigailchristie/Desktop/Faulkenberry,no,mono,no,18,no,white,no,yes,768,legacy,13,79,/Users/abigailchristie/Desktop/Faulkenberry/AHC01.csv,legacy,Kafkaesque Koffka,3.2.5,0,s,NA,return,h,NA,s,509,NA,856,5151,NA,509,2,legacy,1024,2,48000,-16,experiment,HHSHH,1,odd,3127,145633,NA,167120,168321,166612,2250,146444,NA,168212,2263,140480,NA,168321,168833,168203,Flanker Task-AHC,88,43919,94,yes,1024
93.68421053,93.68421053,466.5684211,466.5684211,black,legacy,legacy,legacy,0,incongruent,uniform,1,undefined,1,s,0,0,0,94,94,94,0,94,0,94,0,0,0,94,94,94,Thu Sep  6 13:51:20 2018,600,The main experiment item,yes,FlankerTaskAHC.osexp,/Users/abigailchristie/Desktop/Faulkenberry,no,mono,no,18,no,white,no,yes,768,legacy,14,79,/Users/abigailchristie/Desktop/Faulkenberry/AHC01.csv,legacy,Kafkaesque Koffka,3.2.5,0,s,NA,return,h,NA,s,405,NA,856,5151,NA,405,2,legacy,1024,2,48000,-16,experiment,HHSHH,1,odd,3127,145633,NA,168847,170049,166612,2250,146444,NA,169940,2263,140480,NA,170049,170457,169932,Flanker Task-AHC,89,44324,95,yes,1024
93.75,93.75,466.0416667,466.0416667,black,legacy,legacy,legacy,0,congruent,uniform,1,undefined,1,h,0,0,0,95,95,95,0,95,0,95,0,0,0,95,95,95,Thu Sep  6 13:51:20 2018,600,The main experiment item,yes,FlankerTaskAHC.osexp,/Users/abigailchristie/Desktop/Faulkenberry,no,mono,no,18,no,white,no,yes,768,legacy,15,79,/Users/abigailchristie/Desktop/Faulkenberry/AHC01.csv,legacy,Kafkaesque Koffka,3.2.5,0,h,NA,return,h,NA,h,416,NA,856,5151,NA,416,2,legacy,1024,2,48000,-16,experiment,HHHHH,1,odd,3127,145633,NA,170470,171669,166612,2250,146444,NA,171560,2263,140480,NA,171669,172087,171552,Flanker Task-AHC,90,44740,96,yes,1024
93.81443299,93.81443299,464.9381443,464.9381443,black,legacy,legacy,legacy,0,congruent,uniform,1,undefined,1,s,0,0,0,96,96,96,0,96,0,96,0,0,0,96,96,96,Thu Sep  6 13:51:20 2018,600,The main experiment item,yes,FlankerTaskAHC.osexp,/Users/abigailchristie/Desktop/Faulkenberry,no,mono,no,18,no,white,no,yes,768,legacy,16,79,/Users/abigailchristie/Desktop/Faulkenberry/AHC01.csv,legacy,Kafkaesque Koffka,3.2.5,0,s,NA,return,h,NA,s,359,NA,856,5151,NA,359,2,legacy,1024,2,48000,-16,experiment,SSSSS,1,odd,3127,145633,NA,172100,173303,166612,2250,146444,NA,173194,2263,140480,NA,173303,173664,173186,Flanker Task-AHC,91,45099,97,yes,1024
93.87755102,93.87755102,464.0408163,464.0408163,black,legacy,legacy,legacy,0,incongruent,uniform,1,undefined,1,s,0,0,0,97,97,97,0,97,0,97,0,0,0,97,97,97,Thu Sep  6 13:51:20 2018,600,The main experiment item,yes,FlankerTaskAHC.osexp,/Users/abigailchristie/Desktop/Faulkenberry,no,mono,no,18,no,white,no,yes,768,legacy,17,79,/Users/abigailchristie/Desktop/Faulkenberry/AHC01.csv,legacy,Kafkaesque Koffka,3.2.5,0,s,NA,return,h,NA,s,377,NA,856,5151,NA,377,2,legacy,1024,2,48000,-16,experiment,HHSHH,1,odd,3127,145633,NA,173675,174877,166612,2250,146444,NA,174768,2263,140480,NA,174877,175256,174760,Flanker Task-AHC,92,45476,98,yes,1024
93.93939394,93.93939394,463.1111111,463.1111111,black,legacy,legacy,legacy,0,congruent,uniform,1,undefined,1,s,0,0,0,98,98,98,0,98,0,98,0,0,0,98,98,98,Thu Sep  6 13:51:20 2018,600,The main experiment item,yes,FlankerTaskAHC.osexp,/Users/abigailchristie/Desktop/Faulkenberry,no,mono,no,18,no,white,no,yes,768,legacy,18,79,/Users/abigailchristie/Desktop/Faulkenberry/AHC01.csv,legacy,Kafkaesque Koffka,3.2.5,0,s,NA,return,h,NA,s,372,NA,856,5151,NA,372,2,legacy,1024,2,48000,-16,experiment,SSSSS,1,odd,3127,145633,NA,175269,176466,166612,2250,146444,NA,176356,2263,140480,NA,176466,176840,176348,Flanker Task-AHC,93,45848,99,yes,1024
94,94,464.08,464.08,black,legacy,legacy,legacy,0,incongruent,uniform,1,undefined,1,h,0,0,0,99,99,99,0,99,0,99,0,0,0,99,99,99,Thu Sep  6 13:51:20 2018,600,The main experiment item,yes,FlankerTaskAHC.osexp,/Users/abigailchristie/Desktop/Faulkenberry,no,mono,no,18,no,white,no,yes,768,legacy,19,79,/Users/abigailchristie/Desktop/Faulkenberry/AHC01.csv,legacy,Kafkaesque Koffka,3.2.5,0,h,NA,return,h,NA,h,560,NA,856,5151,NA,560,2,legacy,1024,2,48000,-16,experiment,SSHSS,1,odd,3127,145633,NA,176853,178053,166612,2250,146444,NA,177944,2263,140480,NA,178053,178616,177936,Flanker Task-AHC,94,46408,100,yes,1024
94.05940594,94.05940594,464.1188119,464.1188119,black,legacy,legacy,legacy,0,congruent,uniform,1,undefined,1,h,0,0,0,100,100,100,0,100,0,100,0,0,0,100,100,100,Thu Sep  6 13:51:20 2018,600,The main experiment item,yes,FlankerTaskAHC.osexp,/Users/abigailchristie/Desktop/Faulkenberry,no,mono,no,18,no,white,no,yes,768,legacy,20,79,/Users/abigailchristie/Desktop/Faulkenberry/AHC01.csv,legacy,Kafkaesque Koffka,3.2.5,0,h,NA,return,h,NA,h,468,NA,856,5151,NA,468,2,legacy,1024,2,48000,-16,experiment,HHHHH,1,odd,3127,145633,NA,178630,179833,166612,2250,146444,NA,179724,2263,140480,NA,179833,180304,179716,Flanker Task-AHC,95,46876,101,yes,1024
94.11764706,94.11764706,463.9705882,463.9705882,black,legacy,legacy,legacy,0,incongruent,uniform,1,undefined,1,h,0,0,0,101,101,101,0,101,0,101,0,0,0,101,101,101,Thu Sep  6 13:51:20 2018,600,The main experiment item,yes,FlankerTaskAHC.osexp,/Users/abigailchristie/Desktop/Faulkenberry,no,mono,no,18,no,white,no,yes,768,legacy,21,79,/Users/abigailchristie/Desktop/Faulkenberry/AHC01.csv,legacy,Kafkaesque Koffka,3.2.5,0,h,NA,return,h,NA,h,449,NA,856,5151,NA,449,2,legacy,1024,2,48000,-16,experiment,SSHSS,1,odd,3127,145633,NA,180315,181515,166612,2250,146444,NA,181406,2263,140480,NA,181516,181968,181399,Flanker Task-AHC,96,47325,102,yes,1024
94.17475728,94.17475728,463.3009709,463.3009709,black,legacy,legacy,legacy,0,incongruent,uniform,1,undefined,1,h,0,0,0,102,102,102,0,102,0,102,0,0,0,102,102,102,Thu Sep  6 13:51:20 2018,600,The main experiment item,yes,FlankerTaskAHC.osexp,/Users/abigailchristie/Desktop/Faulkenberry,no,mono,no,18,no,white,no,yes,768,legacy,22,79,/Users/abigailchristie/Desktop/Faulkenberry/AHC01.csv,legacy,Kafkaesque Koffka,3.2.5,0,h,NA,return,h,NA,h,395,NA,856,5151,NA,395,2,legacy,1024,2,48000,-16,experiment,SSHSS,1,odd,3127,145633,NA,181981,183178,166612,2250,146444,NA,183067,2263,140480,NA,183178,183575,183059,Flanker Task-AHC,97,47720,103,yes,1024
94.23076923,94.23076923,463.0961538,463.0961538,black,legacy,legacy,legacy,0,congruent,uniform,1,undefined,1,h,0,0,0,103,103,103,0,103,0,103,0,0,0,103,103,103,Thu Sep  6 13:51:20 2018,600,The main experiment item,yes,FlankerTaskAHC.osexp,/Users/abigailchristie/Desktop/Faulkenberry,no,mono,no,18,no,white,no,yes,768,legacy,23,79,/Users/abigailchristie/Desktop/Faulkenberry/AHC01.csv,legacy,Kafkaesque Koffka,3.2.5,0,h,NA,return,h,NA,h,442,NA,856,5151,NA,442,2,legacy,1024,2,48000,-16,experiment,HHHHH,1,odd,3127,145633,NA,183589,184787,166612,2250,146444,NA,184677,2263,140480,NA,184787,185232,184669,Flanker Task-AHC,98,48162,104,yes,1024
94.28571429,94.28571429,462.8190476,462.8190476,black,legacy,legacy,legacy,0,incongruent,uniform,1,undefined,1,s,0,0,0,104,104,104,0,104,0,104,0,0,0,104,104,104,Thu Sep  6 13:51:20 2018,600,The main experiment item,yes,FlankerTaskAHC.osexp,/Users/abigailchristie/Desktop/Faulkenberry,no,mono,no,18,no,white,no,yes,768,legacy,24,79,/Users/abigailchristie/Desktop/Faulkenberry/AHC01.csv,legacy,Kafkaesque Koffka,3.2.5,0,s,NA,return,h,NA,s,434,NA,856,5151,NA,434,2,legacy,1024,2,48000,-16,experiment,HHSHH,1,odd,3127,145633,NA,185245,186443,166612,2250,146444,NA,186334,2263,140480,NA,186443,186880,186327,Flanker Task-AHC,99,48596,105,yes,1024
94.33962264,94.33962264,461.9150943,461.9150943,black,legacy,legacy,legacy,0,congruent,uniform,1,undefined,1,h,0,0,0,105,105,105,0,105,0,105,0,0,0,105,105,105,Thu Sep  6 13:51:20 2018,600,The main experiment item,yes,FlankerTaskAHC.osexp,/Users/abigailchristie/Desktop/Faulkenberry,no,mono,no,18,no,white,no,yes,768,legacy,25,79,/Users/abigailchristie/Desktop/Faulkenberry/AHC01.csv,legacy,Kafkaesque Koffka,3.2.5,0,h,NA,return,h,NA,h,367,NA,856,5151,NA,367,2,legacy,1024,2,48000,-16,experiment,HHHHH,1,odd,3127,145633,NA,186892,188094,166612,2250,146444,NA,187985,2263,140480,NA,188094,188463,187977,Flanker Task-AHC,100,48963,106,yes,1024
94.39252336,94.39252336,462.2336449,462.2336449,black,legacy,legacy,legacy,0,incongruent,uniform,1,undefined,1,s,0,0,0,106,106,106,0,106,0,106,0,0,0,106,106,106,Thu Sep  6 13:51:20 2018,600,The main experiment item,yes,FlankerTaskAHC.osexp,/Users/abigailchristie/Desktop/Faulkenberry,no,mono,no,18,no,white,no,yes,768,legacy,26,79,/Users/abigailchristie/Desktop/Faulkenberry/AHC01.csv,legacy,Kafkaesque Koffka,3.2.5,0,s,NA,return,h,NA,s,496,NA,856,5151,NA,496,2,legacy,1024,2,48000,-16,experiment,HHSHH,1,odd,3127,145633,NA,188475,189677,166612,2250,146444,NA,189566,2263,140480,NA,189677,190175,189558,Flanker Task-AHC,101,49459,107,yes,1024
94.44444444,94.44444444,461.5555556,461.5555556,black,legacy,legacy,legacy,0,congruent,uniform,1,undefined,1,s,0,0,0,107,107,107,0,107,0,107,0,0,0,107,107,107,Thu Sep  6 13:51:20 2018,600,The main experiment item,yes,FlankerTaskAHC.osexp,/Users/abigailchristie/Desktop/Faulkenberry,no,mono,no,18,no,white,no,yes,768,legacy,27,79,/Users/abigailchristie/Desktop/Faulkenberry/AHC01.csv,legacy,Kafkaesque Koffka,3.2.5,0,s,NA,return,h,NA,s,389,NA,856,5151,NA,389,2,legacy,1024,2,48000,-16,experiment,SSSSS,1,odd,3127,145633,NA,190186,191384,166612,2250,146444,NA,191274,2263,140480,NA,191384,191775,191266,Flanker Task-AHC,102,49848,108,yes,1024
94.49541284,94.49541284,461.6697248,461.6697248,black,legacy,legacy,legacy,0,congruent,uniform,1,undefined,1,s,0,0,0,108,108,108,0,108,0,108,0,0,0,108,108,108,Thu Sep  6 13:51:20 2018,600,The main experiment item,yes,FlankerTaskAHC.osexp,/Users/abigailchristie/Desktop/Faulkenberry,no,mono,no,18,no,white,no,yes,768,legacy,28,79,/Users/abigailchristie/Desktop/Faulkenberry/AHC01.csv,legacy,Kafkaesque Koffka,3.2.5,0,s,NA,return,h,NA,s,474,NA,856,5151,NA,474,2,legacy,1024,2,48000,-16,experiment,SSSSS,1,odd,3127,145633,NA,191786,192987,166612,2250,146444,NA,192878,2263,140480,NA,192987,193463,192870,Flanker Task-AHC,103,50322,109,yes,1024
94.54545455,94.54545455,460.9181818,460.9181818,black,legacy,legacy,legacy,0,incongruent,uniform,1,undefined,1,h,0,0,0,109,109,109,0,109,0,109,0,0,0,109,109,109,Thu Sep  6 13:51:20 2018,600,The main experiment item,yes,FlankerTaskAHC.osexp,/Users/abigailchristie/Desktop/Faulkenberry,no,mono,no,18,no,white,no,yes,768,legacy,29,79,/Users/abigailchristie/Desktop/Faulkenberry/AHC01.csv,legacy,Kafkaesque Koffka,3.2.5,0,h,NA,return,h,NA,h,379,NA,856,5151,NA,379,2,legacy,1024,2,48000,-16,experiment,SSHSS,1,odd,3127,145633,NA,193474,194672,166612,2250,146444,NA,194563,2263,140480,NA,194673,195055,194555,Flanker Task-AHC,104,50701,110,yes,1024
94.59459459,94.59459459,460.4774775,460.4774775,black,legacy,legacy,legacy,0,congruent,uniform,1,undefined,1,h,0,0,0,110,110,110,0,110,0,110,0,0,0,110,110,110,Thu Sep  6 13:51:20 2018,600,The main experiment item,yes,FlankerTaskAHC.osexp,/Users/abigailchristie/Desktop/Faulkenberry,no,mono,no,18,no,white,no,yes,768,legacy,30,79,/Users/abigailchristie/Desktop/Faulkenberry/AHC01.csv,legacy,Kafkaesque Koffka,3.2.5,0,h,NA,return,h,NA,h,412,NA,856,5151,NA,412,2,legacy,1024,2,48000,-16,experiment,HHHHH,1,odd,3127,145633,NA,195069,196273,166612,2250,146444,NA,196163,2263,140480,NA,196273,196687,196154,Flanker Task-AHC,105,51113,111,yes,1024
94.64285714,94.64285714,459.9464286,459.9464286,black,legacy,legacy,legacy,0,congruent,uniform,1,undefined,1,h,0,0,0,111,111,111,0,111,0,111,0,0,0,111,111,111,Thu Sep  6 13:51:20 2018,600,The main experiment item,yes,FlankerTaskAHC.osexp,/Users/abigailchristie/Desktop/Faulkenberry,no,mono,no,18,no,white,no,yes,768,legacy,31,79,/Users/abigailchristie/Desktop/Faulkenberry/AHC01.csv,legacy,Kafkaesque Koffka,3.2.5,0,h,NA,return,h,NA,h,401,NA,856,5151,NA,401,2,legacy,1024,2,48000,-16,experiment,HHHHH,1,odd,3127,145633,NA,196698,197900,166612,2250,146444,NA,197791,2263,140480,NA,197900,198303,197783,Flanker Task-AHC,106,51514,112,yes,1024
94.69026549,94.69026549,459.6017699,459.6017699,black,legacy,legacy,legacy,0,congruent,uniform,1,undefined,1,s,0,0,0,112,112,112,0,112,0,112,0,0,0,112,112,112,Thu Sep  6 13:51:20 2018,600,The main experiment item,yes,FlankerTaskAHC.osexp,/Users/abigailchristie/Desktop/Faulkenberry,no,mono,no,18,no,white,no,yes,768,legacy,32,79,/Users/abigailchristie/Desktop/Faulkenberry/AHC01.csv,legacy,Kafkaesque Koffka,3.2.5,0,s,NA,return,h,NA,s,421,NA,856,5151,NA,421,2,legacy,1024,2,48000,-16,experiment,SSSSS,1,odd,3127,145633,NA,198314,199512,166612,2250,146444,NA,199403,2263,140480,NA,199512,199935,199395,Flanker Task-AHC,107,51935,113,yes,1024
94.73684211,94.73684211,459.9385965,459.9385965,black,legacy,legacy,legacy,0,incongruent,uniform,1,undefined,1,s,0,0,0,113,113,113,0,113,0,113,0,0,0,113,113,113,Thu Sep  6 13:51:20 2018,600,The main experiment item,yes,FlankerTaskAHC.osexp,/Users/abigailchristie/Desktop/Faulkenberry,no,mono,no,18,no,white,no,yes,768,legacy,33,79,/Users/abigailchristie/Desktop/Faulkenberry/AHC01.csv,legacy,Kafkaesque Koffka,3.2.5,0,s,NA,return,h,NA,s,498,NA,856,5151,NA,498,2,legacy,1024,2,48000,-16,experiment,HHSHH,1,odd,3127,145633,NA,199949,201147,166612,2250,146444,NA,201038,2263,140480,NA,201147,201647,201029,Flanker Task-AHC,108,52433,114,yes,1024
94.7826087,94.7826087,459.7130435,459.7130435,black,legacy,legacy,legacy,0,incongruent,uniform,1,undefined,1,h,0,0,0,114,114,114,0,114,0,114,0,0,0,114,114,114,Thu Sep  6 13:51:20 2018,600,The main experiment item,yes,FlankerTaskAHC.osexp,/Users/abigailchristie/Desktop/Faulkenberry,no,mono,no,18,no,white,no,yes,768,legacy,34,79,/Users/abigailchristie/Desktop/Faulkenberry/AHC01.csv,legacy,Kafkaesque Koffka,3.2.5,0,h,NA,return,h,NA,h,434,NA,856,5151,NA,434,2,legacy,1024,2,48000,-16,experiment,SSHSS,1,odd,3127,145633,NA,201660,202859,166612,2250,146444,NA,202749,2263,140480,NA,202859,203295,202742,Flanker Task-AHC,109,52867,115,yes,1024
94.82758621,94.82758621,459.9051724,459.9051724,black,legacy,legacy,legacy,0,incongruent,uniform,1,undefined,1,h,0,0,0,115,115,115,0,115,0,115,0,0,0,115,115,115,Thu Sep  6 13:51:20 2018,600,The main experiment item,yes,FlankerTaskAHC.osexp,/Users/abigailchristie/Desktop/Faulkenberry,no,mono,no,18,no,white,no,yes,768,legacy,35,79,/Users/abigailchristie/Desktop/Faulkenberry/AHC01.csv,legacy,Kafkaesque Koffka,3.2.5,0,h,NA,return,h,NA,h,482,NA,856,5151,NA,482,2,legacy,1024,2,48000,-16,experiment,SSHSS,1,odd,3127,145633,NA,203306,204506,166612,2250,146444,NA,204397,2263,140480,NA,204507,204992,204389,Flanker Task-AHC,110,53349,116,yes,1024
94.87179487,94.87179487,459.6923077,459.6923077,black,legacy,legacy,legacy,0,congruent,uniform,1,undefined,1,s,0,0,0,116,116,116,0,116,0,116,0,0,0,116,116,116,Thu Sep  6 13:51:20 2018,600,The main experiment item,yes,FlankerTaskAHC.osexp,/Users/abigailchristie/Desktop/Faulkenberry,no,mono,no,18,no,white,no,yes,768,legacy,36,79,/Users/abigailchristie/Desktop/Faulkenberry/AHC01.csv,legacy,Kafkaesque Koffka,3.2.5,0,s,NA,return,h,NA,s,435,NA,856,5151,NA,435,2,legacy,1024,2,48000,-16,experiment,SSSSS,1,odd,3127,145633,NA,205004,206201,166612,2250,146444,NA,206092,2263,140480,NA,206201,206639,206085,Flanker Task-AHC,111,53784,117,yes,1024
94.91525424,94.91525424,458.6694915,458.6694915,black,legacy,legacy,legacy,0,incongruent,uniform,1,undefined,1,h,0,0,0,117,117,117,0,117,0,117,0,0,0,117,117,117,Thu Sep  6 13:51:20 2018,600,The main experiment item,yes,FlankerTaskAHC.osexp,/Users/abigailchristie/Desktop/Faulkenberry,no,mono,no,18,no,white,no,yes,768,legacy,37,79,/Users/abigailchristie/Desktop/Faulkenberry/AHC01.csv,legacy,Kafkaesque Koffka,3.2.5,0,h,NA,return,h,NA,h,339,NA,856,5151,NA,339,2,legacy,1024,2,48000,-16,experiment,SSHSS,1,odd,3127,145633,NA,206652,207849,166612,2250,146444,NA,207740,2263,140480,NA,207849,208191,207732,Flanker Task-AHC,112,54123,118,yes,1024
94.11764706,94.11764706,457.8319328,457.8319328,black,legacy,legacy,legacy,0,incongruent,uniform,0,undefined,0,h,0,0,0,118,118,118,0,118,0,118,0,0,0,118,118,118,Thu Sep  6 13:51:20 2018,600,The main experiment item,yes,FlankerTaskAHC.osexp,/Users/abigailchristie/Desktop/Faulkenberry,no,mono,no,18,no,white,no,yes,768,legacy,38,79,/Users/abigailchristie/Desktop/Faulkenberry/AHC01.csv,legacy,Kafkaesque Koffka,3.2.5,0,s,NA,return,h,NA,s,359,NA,856,5151,NA,359,2,legacy,1024,2,48000,-16,experiment,SSHSS,1,odd,3127,145633,NA,208205,209405,166612,2250,146444,NA,209294,2263,140480,NA,209405,209767,209286,Flanker Task-AHC,112,54482,119,yes,1024
93.33333333,93.33333333,456.8333333,456.8333333,black,legacy,legacy,legacy,0,congruent,uniform,0,undefined,0,s,0,0,0,119,119,119,0,119,0,119,0,0,0,119,119,119,Thu Sep  6 13:51:20 2018,600,The main experiment item,yes,FlankerTaskAHC.osexp,/Users/abigailchristie/Desktop/Faulkenberry,no,mono,no,18,no,white,no,yes,768,legacy,39,79,/Users/abigailchristie/Desktop/Faulkenberry/AHC01.csv,legacy,Kafkaesque Koffka,3.2.5,0,h,NA,return,h,NA,h,338,NA,856,5151,NA,338,2,legacy,1024,2,48000,-16,experiment,SSSSS,1,odd,3127,145633,NA,210289,211490,209780,2250,146444,NA,211381,2263,140480,NA,211490,211831,211373,Flanker Task-AHC,112,54820,120,yes,1024
93.38842975,93.38842975,455.9586777,455.9586777,black,legacy,legacy,legacy,0,congruent,uniform,1,undefined,1,h,0,0,0,120,120,120,0,120,0,120,0,0,0,120,120,120,Thu Sep  6 13:51:20 2018,600,The main experiment item,yes,FlankerTaskAHC.osexp,/Users/abigailchristie/Desktop/Faulkenberry,no,mono,no,18,no,white,no,yes,768,legacy,40,79,/Users/abigailchristie/Desktop/Faulkenberry/AHC01.csv,legacy,Kafkaesque Koffka,3.2.5,0,h,NA,return,h,NA,h,351,NA,856,5151,NA,351,2,legacy,1024,2,48000,-16,experiment,HHHHH,1,odd,3127,145633,NA,212351,213549,211843,2250,146444,NA,213440,2263,140480,NA,213549,213903,213432,Flanker Task-AHC,113,55171,121,yes,1024
93.44262295,93.44262295,455.4918033,455.4918033,black,legacy,legacy,legacy,0,congruent,uniform,1,undefined,1,h,0,0,0,121,121,121,0,121,0,121,0,0,0,121,121,121,Thu Sep  6 13:51:20 2018,600,The main experiment item,yes,FlankerTaskAHC.osexp,/Users/abigailchristie/Desktop/Faulkenberry,no,mono,no,18,no,white,no,yes,768,legacy,41,79,/Users/abigailchristie/Desktop/Faulkenberry/AHC01.csv,legacy,Kafkaesque Koffka,3.2.5,0,h,NA,return,h,NA,h,399,NA,856,5151,NA,399,2,legacy,1024,2,48000,-16,experiment,HHHHH,1,odd,3127,145633,NA,213916,215116,211843,2250,146444,NA,215007,2263,140480,NA,215117,215518,215000,Flanker Task-AHC,114,55570,122,yes,1024
93.49593496,93.49593496,454.8373984,454.8373984,black,legacy,legacy,legacy,0,congruent,uniform,1,undefined,1,h,0,0,0,122,122,122,0,122,0,122,0,0,0,122,122,122,Thu Sep  6 13:51:20 2018,600,The main experiment item,yes,FlankerTaskAHC.osexp,/Users/abigailchristie/Desktop/Faulkenberry,no,mono,no,18,no,white,no,yes,768,legacy,42,79,/Users/abigailchristie/Desktop/Faulkenberry/AHC01.csv,legacy,Kafkaesque Koffka,3.2.5,0,h,NA,return,h,NA,h,375,NA,856,5151,NA,375,2,legacy,1024,2,48000,-16,experiment,HHHHH,1,odd,3127,145633,NA,215532,216731,211843,2250,146444,NA,216622,2263,140480,NA,216732,217109,216614,Flanker Task-AHC,115,55945,123,yes,1024
93.5483871,93.5483871,454.3387097,454.3387097,black,legacy,legacy,legacy,0,congruent,uniform,1,undefined,1,h,0,0,0,123,123,123,0,123,0,123,0,0,0,123,123,123,Thu Sep  6 13:51:20 2018,600,The main experiment item,yes,FlankerTaskAHC.osexp,/Users/abigailchristie/Desktop/Faulkenberry,no,mono,no,18,no,white,no,yes,768,legacy,43,79,/Users/abigailchristie/Desktop/Faulkenberry/AHC01.csv,legacy,Kafkaesque Koffka,3.2.5,0,h,NA,return,h,NA,h,393,NA,856,5151,NA,393,2,legacy,1024,2,48000,-16,experiment,HHHHH,1,odd,3127,145633,NA,217121,218323,211843,2250,146444,NA,218214,2263,140480,NA,218323,218719,218206,Flanker Task-AHC,116,56338,124,yes,1024
93.6,93.6,453.856,453.856,black,legacy,legacy,legacy,0,incongruent,uniform,1,undefined,1,h,0,0,0,124,124,124,0,124,0,124,0,0,0,124,124,124,Thu Sep  6 13:51:20 2018,600,The main experiment item,yes,FlankerTaskAHC.osexp,/Users/abigailchristie/Desktop/Faulkenberry,no,mono,no,18,no,white,no,yes,768,legacy,44,79,/Users/abigailchristie/Desktop/Faulkenberry/AHC01.csv,legacy,Kafkaesque Koffka,3.2.5,0,h,NA,return,h,NA,h,394,NA,856,5151,NA,394,2,legacy,1024,2,48000,-16,experiment,SSHSS,1,odd,3127,145633,NA,218733,219930,211843,2250,146444,NA,219822,2263,140480,NA,219930,220326,219814,Flanker Task-AHC,117,56732,125,yes,1024
93.65079365,93.65079365,453.7777778,453.7777778,black,legacy,legacy,legacy,0,congruent,uniform,1,undefined,1,s,0,0,0,125,125,125,0,125,0,125,0,0,0,125,125,125,Thu Sep  6 13:51:20 2018,600,The main experiment item,yes,FlankerTaskAHC.osexp,/Users/abigailchristie/Desktop/Faulkenberry,no,mono,no,18,no,white,no,yes,768,legacy,45,79,/Users/abigailchristie/Desktop/Faulkenberry/AHC01.csv,legacy,Kafkaesque Koffka,3.2.5,0,s,NA,return,h,NA,s,444,NA,856,5151,NA,444,2,legacy,1024,2,48000,-16,experiment,SSSSS,1,odd,3127,145633,NA,220337,221536,211843,2250,146444,NA,221427,2263,140480,NA,221536,221983,221419,Flanker Task-AHC,118,57176,126,yes,1024
93.7007874,93.7007874,453.7874016,453.7874016,black,legacy,legacy,legacy,0,congruent,uniform,1,undefined,1,h,0,0,0,126,126,126,0,126,0,126,0,0,0,126,126,126,Thu Sep  6 13:51:20 2018,600,The main experiment item,yes,FlankerTaskAHC.osexp,/Users/abigailchristie/Desktop/Faulkenberry,no,mono,no,18,no,white,no,yes,768,legacy,46,79,/Users/abigailchristie/Desktop/Faulkenberry/AHC01.csv,legacy,Kafkaesque Koffka,3.2.5,0,h,NA,return,h,NA,h,455,NA,856,5151,NA,455,2,legacy,1024,2,48000,-16,experiment,HHHHH,1,odd,3127,145633,NA,221996,223197,211843,2250,146444,NA,223087,2263,140480,NA,223197,223654,223079,Flanker Task-AHC,119,57631,127,yes,1024
93.75,93.75,453.8203125,453.8203125,black,legacy,legacy,legacy,0,incongruent,uniform,1,undefined,1,s,0,0,0,127,127,127,0,127,0,127,0,0,0,127,127,127,Thu Sep  6 13:51:20 2018,600,The main experiment item,yes,FlankerTaskAHC.osexp,/Users/abigailchristie/Desktop/Faulkenberry,no,mono,no,18,no,white,no,yes,768,legacy,47,79,/Users/abigailchristie/Desktop/Faulkenberry/AHC01.csv,legacy,Kafkaesque Koffka,3.2.5,0,s,NA,return,h,NA,s,458,NA,856,5151,NA,458,2,legacy,1024,2,48000,-16,experiment,HHSHH,1,odd,3127,145633,NA,223666,224866,211843,2250,146444,NA,224756,2263,140480,NA,224866,225327,224748,Flanker Task-AHC,120,58089,128,yes,1024
93.79844961,93.79844961,453.2790698,453.2790698,black,legacy,legacy,legacy,0,incongruent,uniform,1,undefined,1,h,0,0,0,128,128,128,0,128,0,128,0,0,0,128,128,128,Thu Sep  6 13:51:20 2018,600,The main experiment item,yes,FlankerTaskAHC.osexp,/Users/abigailchristie/Desktop/Faulkenberry,no,mono,no,18,no,white,no,yes,768,legacy,48,79,/Users/abigailchristie/Desktop/Faulkenberry/AHC01.csv,legacy,Kafkaesque Koffka,3.2.5,0,h,NA,return,h,NA,h,384,NA,856,5151,NA,384,2,legacy,1024,2,48000,-16,experiment,SSHSS,1,odd,3127,145633,NA,225341,226539,211843,2250,146444,NA,226430,2263,140480,NA,226540,226926,226422,Flanker Task-AHC,121,58473,129,yes,1024
93.84615385,93.84615385,453.0153846,453.0153846,black,legacy,legacy,legacy,0,incongruent,uniform,1,undefined,1,h,0,0,0,129,129,129,0,129,0,129,0,0,0,129,129,129,Thu Sep  6 13:51:20 2018,600,The main experiment item,yes,FlankerTaskAHC.osexp,/Users/abigailchristie/Desktop/Faulkenberry,no,mono,no,18,no,white,no,yes,768,legacy,49,79,/Users/abigailchristie/Desktop/Faulkenberry/AHC01.csv,legacy,Kafkaesque Koffka,3.2.5,0,h,NA,return,h,NA,h,419,NA,856,5151,NA,419,2,legacy,1024,2,48000,-16,experiment,SSHSS,1,odd,3127,145633,NA,226940,228137,211843,2250,146444,NA,228028,2263,140480,NA,228137,228558,228020,Flanker Task-AHC,122,58892,130,yes,1024
93.89312977,93.89312977,452.4351145,452.4351145,black,legacy,legacy,legacy,0,congruent,uniform,1,undefined,1,h,0,0,0,130,130,130,0,130,0,130,0,0,0,130,130,130,Thu Sep  6 13:51:20 2018,600,The main experiment item,yes,FlankerTaskAHC.osexp,/Users/abigailchristie/Desktop/Faulkenberry,no,mono,no,18,no,white,no,yes,768,legacy,50,79,/Users/abigailchristie/Desktop/Faulkenberry/AHC01.csv,legacy,Kafkaesque Koffka,3.2.5,0,h,NA,return,h,NA,h,377,NA,856,5151,NA,377,2,legacy,1024,2,48000,-16,experiment,HHHHH,1,odd,3127,145633,NA,228572,229770,211843,2250,146444,NA,229661,2263,140480,NA,229770,230150,229654,Flanker Task-AHC,123,59269,131,yes,1024
93.93939394,93.93939394,452.7575758,452.7575758,black,legacy,legacy,legacy,0,congruent,uniform,1,undefined,1,s,0,0,0,131,131,131,0,131,0,131,0,0,0,131,131,131,Thu Sep  6 13:51:20 2018,600,The main experiment item,yes,FlankerTaskAHC.osexp,/Users/abigailchristie/Desktop/Faulkenberry,no,mono,no,18,no,white,no,yes,768,legacy,51,79,/Users/abigailchristie/Desktop/Faulkenberry/AHC01.csv,legacy,Kafkaesque Koffka,3.2.5,0,s,NA,return,h,NA,s,495,NA,856,5151,NA,495,2,legacy,1024,2,48000,-16,experiment,SSSSS,1,odd,3127,145633,NA,230163,231365,211843,2250,146444,NA,231256,2263,140480,NA,231365,231862,231247,Flanker Task-AHC,124,59764,132,yes,1024
93.98496241,93.98496241,453.5413534,453.5413534,black,legacy,legacy,legacy,0,incongruent,uniform,1,undefined,1,s,0,0,0,132,132,132,0,132,0,132,0,0,0,132,132,132,Thu Sep  6 13:51:20 2018,600,The main experiment item,yes,FlankerTaskAHC.osexp,/Users/abigailchristie/Desktop/Faulkenberry,no,mono,no,18,no,white,no,yes,768,legacy,52,79,/Users/abigailchristie/Desktop/Faulkenberry/AHC01.csv,legacy,Kafkaesque Koffka,3.2.5,0,s,NA,return,h,NA,s,557,NA,856,5151,NA,557,2,legacy,1024,2,48000,-16,experiment,HHSHH,1,odd,3127,145633,NA,231876,233078,211843,2250,146444,NA,232969,2263,140480,NA,233078,233638,232961,Flanker Task-AHC,125,60321,133,yes,1024
94.02985075,94.02985075,453.5149254,453.5149254,black,legacy,legacy,legacy,0,congruent,uniform,1,undefined,1,s,0,0,0,133,133,133,0,133,0,133,0,0,0,133,133,133,Thu Sep  6 13:51:20 2018,600,The main experiment item,yes,FlankerTaskAHC.osexp,/Users/abigailchristie/Desktop/Faulkenberry,no,mono,no,18,no,white,no,yes,768,legacy,53,79,/Users/abigailchristie/Desktop/Faulkenberry/AHC01.csv,legacy,Kafkaesque Koffka,3.2.5,0,s,NA,return,h,NA,s,450,NA,856,5151,NA,450,2,legacy,1024,2,48000,-16,experiment,SSSSS,1,odd,3127,145633,NA,233649,234850,211843,2250,146444,NA,234740,2263,140480,NA,234850,235305,234731,Flanker Task-AHC,126,60771,134,yes,1024
93.33333333,93.33333333,453.6888889,453.6888889,black,legacy,legacy,legacy,0,incongruent,uniform,0,undefined,0,s,0,0,0,134,134,134,0,134,0,134,0,0,0,134,134,134,Thu Sep  6 13:51:20 2018,600,The main experiment item,yes,FlankerTaskAHC.osexp,/Users/abigailchristie/Desktop/Faulkenberry,no,mono,no,18,no,white,no,yes,768,legacy,54,79,/Users/abigailchristie/Desktop/Faulkenberry/AHC01.csv,legacy,Kafkaesque Koffka,3.2.5,0,h,NA,return,h,NA,h,477,NA,856,5151,NA,477,2,legacy,1024,2,48000,-16,experiment,HHSHH,1,odd,3127,145633,NA,235318,236518,211843,2250,146444,NA,236409,2263,140480,NA,236518,236998,236401,Flanker Task-AHC,126,61248,135,yes,1024
93.38235294,93.38235294,454.4191176,454.4191176,black,legacy,legacy,legacy,0,incongruent,uniform,1,undefined,1,h,0,0,0,135,135,135,0,135,0,135,0,0,0,135,135,135,Thu Sep  6 13:51:20 2018,600,The main experiment item,yes,FlankerTaskAHC.osexp,/Users/abigailchristie/Desktop/Faulkenberry,no,mono,no,18,no,white,no,yes,768,legacy,55,79,/Users/abigailchristie/Desktop/Faulkenberry/AHC01.csv,legacy,Kafkaesque Koffka,3.2.5,0,h,NA,return,h,NA,h,553,NA,856,5151,NA,553,2,legacy,1024,2,48000,-16,experiment,SSHSS,1,odd,3127,145633,NA,237517,238714,237008,2250,146444,NA,238605,2263,140480,NA,238714,239271,238597,Flanker Task-AHC,127,61801,136,yes,1024
93.43065693,93.43065693,454.3211679,454.3211679,black,legacy,legacy,legacy,0,congruent,uniform,1,undefined,1,s,0,0,0,136,136,136,0,136,0,136,0,0,0,136,136,136,Thu Sep  6 13:51:20 2018,600,The main experiment item,yes,FlankerTaskAHC.osexp,/Users/abigailchristie/Desktop/Faulkenberry,no,mono,no,18,no,white,no,yes,768,legacy,56,79,/Users/abigailchristie/Desktop/Faulkenberry/AHC01.csv,legacy,Kafkaesque Koffka,3.2.5,0,s,NA,return,h,NA,s,441,NA,856,5151,NA,441,2,legacy,1024,2,48000,-16,experiment,SSSSS,1,odd,3127,145633,NA,239284,240481,237008,2250,146444,NA,240372,2263,140480,NA,240482,240926,240364,Flanker Task-AHC,128,62242,137,yes,1024
93.47826087,93.47826087,454.3550725,454.3550725,black,legacy,legacy,legacy,0,congruent,uniform,1,undefined,1,h,0,0,0,137,137,137,0,137,0,137,0,0,0,137,137,137,Thu Sep  6 13:51:20 2018,600,The main experiment item,yes,FlankerTaskAHC.osexp,/Users/abigailchristie/Desktop/Faulkenberry,no,mono,no,18,no,white,no,yes,768,legacy,57,79,/Users/abigailchristie/Desktop/Faulkenberry/AHC01.csv,legacy,Kafkaesque Koffka,3.2.5,0,h,NA,return,h,NA,h,459,NA,856,5151,NA,459,2,legacy,1024,2,48000,-16,experiment,HHHHH,1,odd,3127,145633,NA,240938,242136,237008,2250,146444,NA,242026,2263,140480,NA,242136,242597,242018,Flanker Task-AHC,129,62701,138,yes,1024
93.52517986,93.52517986,454.2589928,454.2589928,black,legacy,legacy,legacy,0,incongruent,uniform,1,undefined,1,s,0,0,0,138,138,138,0,138,0,138,0,0,0,138,138,138,Thu Sep  6 13:51:20 2018,600,The main experiment item,yes,FlankerTaskAHC.osexp,/Users/abigailchristie/Desktop/Faulkenberry,no,mono,no,18,no,white,no,yes,768,legacy,58,79,/Users/abigailchristie/Desktop/Faulkenberry/AHC01.csv,legacy,Kafkaesque Koffka,3.2.5,0,s,NA,return,h,NA,s,441,NA,856,5151,NA,441,2,legacy,1024,2,48000,-16,experiment,HHSHH,1,odd,3127,145633,NA,242608,243810,237008,2250,146444,NA,243701,2263,140480,NA,243810,244254,243693,Flanker Task-AHC,130,63142,139,yes,1024
93.57142857,93.57142857,454.1571429,454.1571429,black,legacy,legacy,legacy,0,congruent,uniform,1,undefined,1,s,0,0,0,139,139,139,0,139,0,139,0,0,0,139,139,139,Thu Sep  6 13:51:20 2018,600,The main experiment item,yes,FlankerTaskAHC.osexp,/Users/abigailchristie/Desktop/Faulkenberry,no,mono,no,18,no,white,no,yes,768,legacy,59,79,/Users/abigailchristie/Desktop/Faulkenberry/AHC01.csv,legacy,Kafkaesque Koffka,3.2.5,0,s,NA,return,h,NA,s,440,NA,856,5151,NA,440,2,legacy,1024,2,48000,-16,experiment,SSSSS,1,odd,3127,145633,NA,244267,245466,237008,2250,146444,NA,245357,2263,140480,NA,245467,245910,245349,Flanker Task-AHC,131,63582,140,yes,1024
93.61702128,93.61702128,454.7021277,454.7021277,black,legacy,legacy,legacy,0,incongruent,uniform,1,undefined,1,s,0,0,0,140,140,140,0,140,0,140,0,0,0,140,140,140,Thu Sep  6 13:51:20 2018,600,The main experiment item,yes,FlankerTaskAHC.osexp,/Users/abigailchristie/Desktop/Faulkenberry,no,mono,no,18,no,white,no,yes,768,legacy,60,79,/Users/abigailchristie/Desktop/Faulkenberry/AHC01.csv,legacy,Kafkaesque Koffka,3.2.5,0,s,NA,return,h,NA,s,531,NA,856,5151,NA,531,2,legacy,1024,2,48000,-16,experiment,HHSHH,1,odd,3127,145633,NA,245922,247119,237008,2250,146444,NA,247010,2263,140480,NA,247120,247654,247002,Flanker Task-AHC,132,64113,141,yes,1024
93.66197183,93.66197183,454.3309859,454.3309859,black,legacy,legacy,legacy,0,incongruent,uniform,1,undefined,1,s,0,0,0,141,141,141,0,141,0,141,0,0,0,141,141,141,Thu Sep  6 13:51:20 2018,600,The main experiment item,yes,FlankerTaskAHC.osexp,/Users/abigailchristie/Desktop/Faulkenberry,no,mono,no,18,no,white,no,yes,768,legacy,61,79,/Users/abigailchristie/Desktop/Faulkenberry/AHC01.csv,legacy,Kafkaesque Koffka,3.2.5,0,s,NA,return,h,NA,s,402,NA,856,5151,NA,402,2,legacy,1024,2,48000,-16,experiment,HHSHH,1,odd,3127,145633,NA,247665,248865,237008,2250,146444,NA,248755,2263,140480,NA,248865,249269,248748,Flanker Task-AHC,133,64515,142,yes,1024
93.70629371,93.70629371,453.979021,453.979021,black,legacy,legacy,legacy,0,congruent,uniform,1,undefined,1,s,0,0,0,142,142,142,0,142,0,142,0,0,0,142,142,142,Thu Sep  6 13:51:20 2018,600,The main experiment item,yes,FlankerTaskAHC.osexp,/Users/abigailchristie/Desktop/Faulkenberry,no,mono,no,18,no,white,no,yes,768,legacy,62,79,/Users/abigailchristie/Desktop/Faulkenberry/AHC01.csv,legacy,Kafkaesque Koffka,3.2.5,0,s,NA,return,h,NA,s,404,NA,856,5151,NA,404,2,legacy,1024,2,48000,-16,experiment,SSSSS,1,odd,3127,145633,NA,249281,250479,237008,2250,146444,NA,250370,2263,140480,NA,250479,250886,250362,Flanker Task-AHC,134,64919,143,yes,1024
93.75,93.75,454.125,454.125,black,legacy,legacy,legacy,0,congruent,uniform,1,undefined,1,h,0,0,0,143,143,143,0,143,0,143,0,0,0,143,143,143,Thu Sep  6 13:51:20 2018,600,The main experiment item,yes,FlankerTaskAHC.osexp,/Users/abigailchristie/Desktop/Faulkenberry,no,mono,no,18,no,white,no,yes,768,legacy,63,79,/Users/abigailchristie/Desktop/Faulkenberry/AHC01.csv,legacy,Kafkaesque Koffka,3.2.5,0,h,NA,return,h,NA,h,475,NA,856,5151,NA,475,2,legacy,1024,2,48000,-16,experiment,HHHHH,1,odd,3127,145633,NA,250898,252096,237008,2250,146444,NA,251987,2263,140480,NA,252096,252574,251979,Flanker Task-AHC,135,65394,144,yes,1024
93.79310345,93.79310345,454.9862069,454.9862069,black,legacy,legacy,legacy,0,incongruent,uniform,1,undefined,1,h,0,0,0,144,144,144,0,144,0,144,0,0,0,144,144,144,Thu Sep  6 13:51:20 2018,600,The main experiment item,yes,FlankerTaskAHC.osexp,/Users/abigailchristie/Desktop/Faulkenberry,no,mono,no,18,no,white,no,yes,768,legacy,64,79,/Users/abigailchristie/Desktop/Faulkenberry/AHC01.csv,legacy,Kafkaesque Koffka,3.2.5,0,h,NA,return,h,NA,h,579,NA,856,5151,NA,579,2,legacy,1024,2,48000,-16,experiment,SSHSS,1,odd,3127,145633,NA,252585,253784,237008,2250,146444,NA,253674,2263,140480,NA,253784,254366,253666,Flanker Task-AHC,136,65973,145,yes,1024
93.83561644,93.83561644,454.9863014,454.9863014,black,legacy,legacy,legacy,0,congruent,uniform,1,undefined,1,h,0,0,0,145,145,145,0,145,0,145,0,0,0,145,145,145,Thu Sep  6 13:51:20 2018,600,The main experiment item,yes,FlankerTaskAHC.osexp,/Users/abigailchristie/Desktop/Faulkenberry,no,mono,no,18,no,white,no,yes,768,legacy,65,79,/Users/abigailchristie/Desktop/Faulkenberry/AHC01.csv,legacy,Kafkaesque Koffka,3.2.5,0,h,NA,return,h,NA,h,455,NA,856,5151,NA,455,2,legacy,1024,2,48000,-16,experiment,HHHHH,1,odd,3127,145633,NA,254379,255578,237008,2250,146444,NA,255468,2263,140480,NA,255579,256037,255461,Flanker Task-AHC,137,66428,146,yes,1024
93.87755102,93.87755102,454.9387755,454.9387755,black,legacy,legacy,legacy,0,incongruent,uniform,1,undefined,1,s,0,0,0,146,146,146,0,146,0,146,0,0,0,146,146,146,Thu Sep  6 13:51:20 2018,600,The main experiment item,yes,FlankerTaskAHC.osexp,/Users/abigailchristie/Desktop/Faulkenberry,no,mono,no,18,no,white,no,yes,768,legacy,66,79,/Users/abigailchristie/Desktop/Faulkenberry/AHC01.csv,legacy,Kafkaesque Koffka,3.2.5,0,s,NA,return,h,NA,s,448,NA,856,5151,NA,448,2,legacy,1024,2,48000,-16,experiment,HHSHH,1,odd,3127,145633,NA,256051,257251,237008,2250,146444,NA,257142,2263,140480,NA,257251,257702,257134,Flanker Task-AHC,138,66876,147,yes,1024
93.91891892,93.91891892,455.1081081,455.1081081,black,legacy,legacy,legacy,0,congruent,uniform,1,undefined,1,h,0,0,0,147,147,147,0,147,0,147,0,0,0,147,147,147,Thu Sep  6 13:51:20 2018,600,The main experiment item,yes,FlankerTaskAHC.osexp,/Users/abigailchristie/Desktop/Faulkenberry,no,mono,no,18,no,white,no,yes,768,legacy,67,79,/Users/abigailchristie/Desktop/Faulkenberry/AHC01.csv,legacy,Kafkaesque Koffka,3.2.5,0,h,NA,return,h,NA,h,480,NA,856,5151,NA,480,2,legacy,1024,2,48000,-16,experiment,HHHHH,1,odd,3127,145633,NA,257716,258915,237008,2250,146444,NA,258805,2263,140480,NA,258915,259398,258797,Flanker Task-AHC,139,67356,148,yes,1024
93.95973154,93.95973154,455.4966443,455.4966443,black,legacy,legacy,legacy,0,incongruent,uniform,1,undefined,1,h,0,0,0,148,148,148,0,148,0,148,0,0,0,148,148,148,Thu Sep  6 13:51:20 2018,600,The main experiment item,yes,FlankerTaskAHC.osexp,/Users/abigailchristie/Desktop/Faulkenberry,no,mono,no,18,no,white,no,yes,768,legacy,68,79,/Users/abigailchristie/Desktop/Faulkenberry/AHC01.csv,legacy,Kafkaesque Koffka,3.2.5,0,h,NA,return,h,NA,h,513,NA,856,5151,NA,513,2,legacy,1024,2,48000,-16,experiment,SSHSS,1,odd,3127,145633,NA,259411,260609,237008,2250,146444,NA,260500,2263,140480,NA,260609,261124,260492,Flanker Task-AHC,140,67869,149,yes,1024
94,94,455.26,455.26,black,legacy,legacy,legacy,0,congruent,uniform,1,undefined,1,h,0,0,0,149,149,149,0,149,0,149,0,0,0,149,149,149,Thu Sep  6 13:51:20 2018,600,The main experiment item,yes,FlankerTaskAHC.osexp,/Users/abigailchristie/Desktop/Faulkenberry,no,mono,no,18,no,white,no,yes,768,legacy,69,79,/Users/abigailchristie/Desktop/Faulkenberry/AHC01.csv,legacy,Kafkaesque Koffka,3.2.5,0,h,NA,return,h,NA,h,420,NA,856,5151,NA,420,2,legacy,1024,2,48000,-16,experiment,HHHHH,1,odd,3127,145633,NA,261136,262335,237008,2250,146444,NA,262227,2263,140480,NA,262335,262757,262219,Flanker Task-AHC,141,68289,150,yes,1024
94.0397351,94.0397351,455.4768212,455.4768212,black,legacy,legacy,legacy,0,congruent,uniform,1,undefined,1,s,0,0,0,150,150,150,0,150,0,150,0,0,0,150,150,150,Thu Sep  6 13:51:20 2018,600,The main experiment item,yes,FlankerTaskAHC.osexp,/Users/abigailchristie/Desktop/Faulkenberry,no,mono,no,18,no,white,no,yes,768,legacy,70,79,/Users/abigailchristie/Desktop/Faulkenberry/AHC01.csv,legacy,Kafkaesque Koffka,3.2.5,0,s,NA,return,h,NA,s,488,NA,856,5151,NA,488,2,legacy,1024,2,48000,-16,experiment,SSSSS,1,odd,3127,145633,NA,262768,263970,237008,2250,146444,NA,263860,2263,140480,NA,263970,264461,263852,Flanker Task-AHC,142,68777,151,yes,1024
94.07894737,94.07894737,455.1973684,455.1973684,black,legacy,legacy,legacy,0,incongruent,uniform,1,undefined,1,s,0,0,0,151,151,151,0,151,0,151,0,0,0,151,151,151,Thu Sep  6 13:51:20 2018,600,The main experiment item,yes,FlankerTaskAHC.osexp,/Users/abigailchristie/Desktop/Faulkenberry,no,mono,no,18,no,white,no,yes,768,legacy,71,79,/Users/abigailchristie/Desktop/Faulkenberry/AHC01.csv,legacy,Kafkaesque Koffka,3.2.5,0,s,NA,return,h,NA,s,413,NA,856,5151,NA,413,2,legacy,1024,2,48000,-16,experiment,HHSHH,1,odd,3127,145633,NA,264474,265675,237008,2250,146444,NA,265566,2263,140480,NA,265676,266093,265558,Flanker Task-AHC,143,69190,152,yes,1024
94.11764706,94.11764706,455.4640523,455.4640523,black,legacy,legacy,legacy,0,incongruent,uniform,1,undefined,1,s,0,0,0,152,152,152,0,152,0,152,0,0,0,152,152,152,Thu Sep  6 13:51:20 2018,600,The main experiment item,yes,FlankerTaskAHC.osexp,/Users/abigailchristie/Desktop/Faulkenberry,no,mono,no,18,no,white,no,yes,768,legacy,72,79,/Users/abigailchristie/Desktop/Faulkenberry/AHC01.csv,legacy,Kafkaesque Koffka,3.2.5,0,s,NA,return,h,NA,s,496,NA,856,5151,NA,496,2,legacy,1024,2,48000,-16,experiment,HHSHH,1,odd,3127,145633,NA,266107,267306,237008,2250,146444,NA,267197,2263,140480,NA,267306,267806,267189,Flanker Task-AHC,144,69686,153,yes,1024
94.15584416,94.15584416,455.5909091,455.5909091,black,legacy,legacy,legacy,0,congruent,uniform,1,undefined,1,h,0,0,0,153,153,153,0,153,0,153,0,0,0,153,153,153,Thu Sep  6 13:51:20 2018,600,The main experiment item,yes,FlankerTaskAHC.osexp,/Users/abigailchristie/Desktop/Faulkenberry,no,mono,no,18,no,white,no,yes,768,legacy,73,79,/Users/abigailchristie/Desktop/Faulkenberry/AHC01.csv,legacy,Kafkaesque Koffka,3.2.5,0,h,NA,return,h,NA,h,475,NA,856,5151,NA,475,2,legacy,1024,2,48000,-16,experiment,HHHHH,1,odd,3127,145633,NA,267817,269015,237008,2250,146444,NA,268906,2263,140480,NA,269015,269493,268898,Flanker Task-AHC,145,70161,154,yes,1024
94.19354839,94.19354839,455.6516129,455.6516129,black,legacy,legacy,legacy,0,incongruent,uniform,1,undefined,1,s,0,0,0,154,154,154,0,154,0,154,0,0,0,154,154,154,Thu Sep  6 13:51:20 2018,600,The main experiment item,yes,FlankerTaskAHC.osexp,/Users/abigailchristie/Desktop/Faulkenberry,no,mono,no,18,no,white,no,yes,768,legacy,74,79,/Users/abigailchristie/Desktop/Faulkenberry/AHC01.csv,legacy,Kafkaesque Koffka,3.2.5,0,s,NA,return,h,NA,s,465,NA,856,5151,NA,465,2,legacy,1024,2,48000,-16,experiment,HHSHH,1,odd,3127,145633,NA,269506,270705,237008,2250,146444,NA,270595,2263,140480,NA,270705,271174,270587,Flanker Task-AHC,146,70626,155,yes,1024
94.23076923,94.23076923,455.9615385,455.9615385,black,legacy,legacy,legacy,0,incongruent,uniform,1,undefined,1,s,0,0,0,155,155,155,0,155,0,155,0,0,0,155,155,155,Thu Sep  6 13:51:20 2018,600,The main experiment item,yes,FlankerTaskAHC.osexp,/Users/abigailchristie/Desktop/Faulkenberry,no,mono,no,18,no,white,no,yes,768,legacy,75,79,/Users/abigailchristie/Desktop/Faulkenberry/AHC01.csv,legacy,Kafkaesque Koffka,3.2.5,0,s,NA,return,h,NA,s,504,NA,856,5151,NA,504,2,legacy,1024,2,48000,-16,experiment,HHSHH,1,odd,3127,145633,NA,271186,272386,237008,2250,146444,NA,272276,2263,140480,NA,272386,272893,272268,Flanker Task-AHC,147,71130,156,yes,1024
94.26751592,94.26751592,456.2484076,456.2484076,black,legacy,legacy,legacy,0,congruent,uniform,1,undefined,1,h,0,0,0,156,156,156,0,156,0,156,0,0,0,156,156,156,Thu Sep  6 13:51:20 2018,600,The main experiment item,yes,FlankerTaskAHC.osexp,/Users/abigailchristie/Desktop/Faulkenberry,no,mono,no,18,no,white,no,yes,768,legacy,76,79,/Users/abigailchristie/Desktop/Faulkenberry/AHC01.csv,legacy,Kafkaesque Koffka,3.2.5,0,h,NA,return,h,NA,h,501,NA,856,5151,NA,501,2,legacy,1024,2,48000,-16,experiment,HHHHH,1,odd,3127,145633,NA,272903,274101,237008,2250,146444,NA,273992,2263,140480,NA,274101,274606,273984,Flanker Task-AHC,148,71631,157,yes,1024
93.67088608,93.67088608,456.2911392,456.2911392,black,legacy,legacy,legacy,0,incongruent,uniform,0,undefined,0,h,0,0,0,157,157,157,0,157,0,157,0,0,0,157,157,157,Thu Sep  6 13:51:20 2018,600,The main experiment item,yes,FlankerTaskAHC.osexp,/Users/abigailchristie/Desktop/Faulkenberry,no,mono,no,18,no,white,no,yes,768,legacy,77,79,/Users/abigailchristie/Desktop/Faulkenberry/AHC01.csv,legacy,Kafkaesque Koffka,3.2.5,0,s,NA,return,h,NA,s,463,NA,856,5151,NA,463,2,legacy,1024,2,48000,-16,experiment,SSHSS,1,odd,3127,145633,NA,274619,275819,237008,2250,146444,NA,275710,2263,140480,NA,275819,276285,275702,Flanker Task-AHC,148,72094,158,yes,1024
