"acc","accuracy","average_response_time","avg_rt","background","bidi","canvas_backend","clock_backend","color_backend","compensation","condition","coordinates","correct","correct_instructions1","correct_keyboard_response","correct_response","count_ISI","count_blcok1","count_block2","count_block3","count_errorFeedback","count_experiment","count_faster","count_finish","count_fixation","count_instructions1","count_instructions2","count_instructions3","count_keyboard_response","count_new_logger","count_sequence","count_stimulus","datetime","deadline","description","disable_garbage_collection","experiment_path","font_bold","font_family","font_italic","font_size","font_underline","foreground","form_clicks","fullscreen","height","keyboard_backend","live_row","live_row_blcok1","logfile","mouse_backend","opensesame_codename","opensesame_version","repeat_cycle","response","response_finish","response_instructions1","response_instructions2","response_instructions3","response_keyboard_response","response_time","response_time_finish","response_time_instructions1","response_time_instructions2","response_time_instructions3","response_time_keyboard_response","round_decimals","sampler_backend","sound_buf_size","sound_channels","sound_freq","sound_sample_size","start","stimulus","subject_nr","subject_parity","time_ISI","time_blcok1","time_block2","time_block3","time_errorFeedback","time_experiment","time_faster","time_finish","time_fixation","time_instructions1","time_instructions2","time_instructions3","time_keyboard_response","time_new_logger","time_sequence","time_stimulus","title","total_correct","total_response_time","total_responses","uniform_coordinates","width"
"100","100","960","960","black","no","legacy","legacy","legacy","0","incongruent","uniform","1","undefined","1","s","0","0","0","0","0","0","0","0","0","0","0","0","0","0","0","0","09/09/18 21:06:58","1500","The main experiment item","yes","F:\","no","mono","no","18","no","white","no","yes","768","legacy","0","0","F:/mc-subject-1.csv","legacy","Jazzy James","3.1.9","0","s","NA","h","NA","NA","s","960","NA","30031","NA","NA","960","2","legacy","1024","2","48000","-16","experiment","HHSHH","1","odd","NA","34814","NA","NA","NA","4777","NA","NA","34926","4781","NA","NA","35029","35991","34922","35029","Flanker","1","960","1","yes","1024"
"100","100","820","820","black","no","legacy","legacy","legacy","0","incongruent","uniform","1","undefined","1","h","1","0","0","0","1","0","1","0","1","0","0","0","1","1","1","1","09/09/18 21:06:58","1500","The main experiment item","yes","F:\","no","mono","no","18","no","white","no","yes","768","legacy","1","1","F:/mc-subject-1.csv","legacy","Jazzy James","3.1.9","0","h","NA","h","NA","NA","h","680","NA","30031","NA","NA","680","2","legacy","1024","2","48000","-16","experiment","SSHSS","1","odd","36047","34814","NA","NA","NA","4777","NA","NA","37167","4781","NA","NA","37270","37952","37163","37269","Flanker","2","1640","2","yes","1024"
"100","100","730.333333333","730.333333333","black","no","legacy","legacy","legacy","0","incongruent","uniform","1","undefined","1","h","2","0","0","0","2","0","2","0","2","0","0","0","2","2","2","2","09/09/18 21:06:58","1500","The main experiment item","yes","F:\","no","mono","no","18","no","white","no","yes","768","legacy","2","2","F:/mc-subject-1.csv","legacy","Jazzy James","3.1.9","0","h","NA","h","NA","NA","h","551","NA","30031","NA","NA","551","2","legacy","1024","2","48000","-16","experiment","SSHSS","1","odd","37967","34814","NA","NA","NA","4777","NA","NA","39083","4781","NA","NA","39187","39739","39079","39187","Flanker","3","2191","3","yes","1024"
"100","100","680","680","black","no","legacy","legacy","legacy","0","incongruent","uniform","1","undefined","1","s","3","0","0","0","3","0","3","0","3","0","0","0","3","3","3","3","09/09/18 21:06:58","1500","The main experiment item","yes","F:\","no","mono","no","18","no","white","no","yes","768","legacy","3","3","F:/mc-subject-1.csv","legacy","Jazzy James","3.1.9","0","s","NA","h","NA","NA","s","529","NA","30031","NA","NA","529","2","legacy","1024","2","48000","-16","experiment","HHSHH","1","odd","39751","34814","NA","NA","NA","4777","NA","NA","40859","4781","NA","NA","40962","41492","40855","40962","Flanker","4","2720","4","yes","1024"
"100","100","633.8","633.8","black","no","legacy","legacy","legacy","0","incongruent","uniform","1","undefined","1","h","4","0","0","0","4","0","4","0","4","0","0","0","4","4","4","4","09/09/18 21:06:58","1500","The main experiment item","yes","F:\","no","mono","no","18","no","white","no","yes","768","legacy","4","4","F:/mc-subject-1.csv","legacy","Jazzy James","3.1.9","0","h","NA","h","NA","NA","h","449","NA","30031","NA","NA","449","2","legacy","1024","2","48000","-16","experiment","SSHSS","1","odd","41523","34814","NA","NA","NA","4777","NA","NA","42629","4781","NA","NA","42732","43182","42625","42731","Flanker","5","3169","5","yes","1024"
"83.3333333333","83.3333333333","605.333333333","605.333333333","black","no","legacy","legacy","legacy","0","congruent","uniform","0","undefined","0","s","5","0","0","0","5","0","5","0","5","0","0","0","5","5","5","5","09/09/18 21:06:58","1500","The main experiment item","yes","F:\","no","mono","no","18","no","white","no","yes","768","legacy","5","5","F:/mc-subject-1.csv","legacy","Jazzy James","3.1.9","0","h","NA","h","NA","NA","h","463","NA","30031","NA","NA","463","2","legacy","1024","2","48000","-16","experiment","SSSSS","1","odd","43196","34814","NA","NA","NA","4777","NA","NA","44305","4781","NA","NA","44408","44872","44301","44408","Flanker","5","3632","6","yes","1024"
"85.7142857143","85.7142857143","592.428571429","592.428571429","black","no","legacy","legacy","legacy","0","congruent","uniform","1","undefined","1","h","6","0","0","0","6","0","6","0","6","0","0","0","6","6","6","6","09/09/18 21:06:58","1500","The main experiment item","yes","F:\","no","mono","no","18","no","white","no","yes","768","legacy","6","6","F:/mc-subject-1.csv","legacy","Jazzy James","3.1.9","0","h","NA","h","NA","NA","h","515","NA","30031","NA","NA","515","2","legacy","1024","2","48000","-16","experiment","HHHHH","1","odd","45389","34814","NA","NA","44886","4777","NA","NA","46490","4781","NA","NA","46594","47110","46486","46594","Flanker","6","4147","7","yes","1024"
"87.5","87.5","589.125","589.125","black","no","legacy","legacy","legacy","0","incongruent","uniform","1","undefined","1","s","7","0","0","0","7","0","7","0","7","0","0","0","7","7","7","7","09/09/18 21:06:58","1500","The main experiment item","yes","F:\","no","mono","no","18","no","white","no","yes","768","legacy","7","7","F:/mc-subject-1.csv","legacy","Jazzy James","3.1.9","0","s","NA","h","NA","NA","s","566","NA","30031","NA","NA","566","2","legacy","1024","2","48000","-16","experiment","HHSHH","1","odd","47122","34814","NA","NA","44886","4777","NA","NA","48225","4781","NA","NA","48328","48895","48221","48328","Flanker","7","4713","8","yes","1024"
"88.8888888889","88.8888888889","582.777777778","582.777777778","black","no","legacy","legacy","legacy","0","congruent","uniform","1","undefined","1","h","8","0","0","0","8","0","8","0","8","0","0","0","8","8","8","8","09/09/18 21:06:58","1500","The main experiment item","yes","F:\","no","mono","no","18","no","white","no","yes","768","legacy","8","8","F:/mc-subject-1.csv","legacy","Jazzy James","3.1.9","0","h","NA","h","NA","NA","h","532","NA","30031","NA","NA","532","2","legacy","1024","2","48000","-16","experiment","HHHHH","1","odd","48908","34814","NA","NA","44886","4777","NA","NA","50021","4781","NA","NA","50124","50658","50017","50124","Flanker","8","5245","9","yes","1024"
"90","90","579.5","579.5","black","no","legacy","legacy","legacy","0","congruent","uniform","1","undefined","1","s","9","0","0","0","9","0","9","0","9","0","0","0","9","9","9","9","09/09/18 21:06:58","1500","The main experiment item","yes","F:\","no","mono","no","18","no","white","no","yes","768","legacy","9","9","F:/mc-subject-1.csv","legacy","Jazzy James","3.1.9","0","s","NA","h","NA","NA","s","550","NA","30031","NA","NA","550","2","legacy","1024","2","48000","-16","experiment","SSSSS","1","odd","50668","34814","NA","NA","44886","4777","NA","NA","51774","4781","NA","NA","51877","52428","51769","51876","Flanker","9","5795","10","yes","1024"
"81.8181818182","81.8181818182","568.454545455","568.454545455","black","no","legacy","legacy","legacy","0","incongruent","uniform","0","undefined","0","s","10","0","0","0","10","0","10","0","10","0","0","0","10","10","10","10","09/09/18 21:06:58","1500","The main experiment item","yes","F:\","no","mono","no","18","no","white","no","yes","768","legacy","10","10","F:/mc-subject-1.csv","legacy","Jazzy James","3.1.9","0","h","NA","h","NA","NA","h","458","NA","30031","NA","NA","458","2","legacy","1024","2","48000","-16","experiment","HHSHH","1","odd","52442","34814","NA","NA","44886","4777","NA","NA","53582","4781","NA","NA","53691","54151","53578","53690","Flanker","9","6253","11","yes","1024"
"83.3333333333","83.3333333333","569.75","569.75","black","no","legacy","legacy","legacy","0","congruent","uniform","1","undefined","1","s","11","0","0","0","11","0","11","0","11","0","0","0","11","11","11","11","09/09/18 21:06:58","1500","The main experiment item","yes","F:\","no","mono","no","18","no","white","no","yes","768","legacy","11","11","F:/mc-subject-1.csv","legacy","Jazzy James","3.1.9","0","s","NA","h","NA","NA","s","584","NA","30031","NA","NA","584","2","legacy","1024","2","48000","-16","experiment","SSSSS","1","odd","54666","34814","NA","NA","54163","4777","NA","NA","55794","4781","NA","NA","55897","56482","55790","55897","Flanker","10","6837","12","yes","1024"
"84.6153846154","84.6153846154","568.846153846","568.846153846","black","no","legacy","legacy","legacy","0","congruent","uniform","1","undefined","1","s","12","0","0","0","12","0","12","0","12","0","0","0","12","12","12","12","09/09/18 21:06:58","1500","The main experiment item","yes","F:\","no","mono","no","18","no","white","no","yes","768","legacy","12","12","F:/mc-subject-1.csv","legacy","Jazzy James","3.1.9","0","s","NA","h","NA","NA","s","558","NA","30031","NA","NA","558","2","legacy","1024","2","48000","-16","experiment","SSSSS","1","odd","56495","34814","NA","NA","54163","4777","NA","NA","57603","4781","NA","NA","57706","58265","57598","57705","Flanker","11","7395","13","yes","1024"
"85.7142857143","85.7142857143","562","562","black","no","legacy","legacy","legacy","0","congruent","uniform","1","undefined","1","s","13","0","0","0","13","0","13","0","13","0","0","0","13","13","13","13","09/09/18 21:06:58","1500","The main experiment item","yes","F:\","no","mono","no","18","no","white","no","yes","768","legacy","13","13","F:/mc-subject-1.csv","legacy","Jazzy James","3.1.9","0","s","NA","h","NA","NA","s","473","NA","30031","NA","NA","473","2","legacy","1024","2","48000","-16","experiment","SSSSS","1","odd","58277","34814","NA","NA","54163","4777","NA","NA","59392","4781","NA","NA","59496","59970","59388","59495","Flanker","12","7868","14","yes","1024"
"86.6666666667","86.6666666667","558","558","black","no","legacy","legacy","legacy","0","congruent","uniform","1","undefined","1","s","14","0","0","0","14","0","14","0","14","0","0","0","14","14","14","14","09/09/18 21:06:58","1500","The main experiment item","yes","F:\","no","mono","no","18","no","white","no","yes","768","legacy","14","14","F:/mc-subject-1.csv","legacy","Jazzy James","3.1.9","0","s","NA","h","NA","NA","s","502","NA","30031","NA","NA","502","2","legacy","1024","2","48000","-16","experiment","SSSSS","1","odd","59985","34814","NA","NA","54163","4777","NA","NA","61097","4781","NA","NA","61201","61704","61093","61200","Flanker","13","8370","15","yes","1024"
"87.5","87.5","555.625","555.625","black","no","legacy","legacy","legacy","0","incongruent","uniform","1","undefined","1","s","15","0","0","0","15","0","15","0","15","0","0","0","15","15","15","15","09/09/18 21:06:58","1500","The main experiment item","yes","F:\","no","mono","no","18","no","white","no","yes","768","legacy","15","15","F:/mc-subject-1.csv","legacy","Jazzy James","3.1.9","0","s","NA","h","NA","NA","s","520","NA","30031","NA","NA","520","2","legacy","1024","2","48000","-16","experiment","HHSHH","1","odd","61715","34814","NA","NA","54163","4777","NA","NA","62821","4781","NA","NA","62924","63445","62816","62924","Flanker","14","8890","16","yes","1024"
"88.2352941176","88.2352941176","550.941176471","550.941176471","black","no","legacy","legacy","legacy","0","incongruent","uniform","1","undefined","1","s","16","0","0","0","16","0","16","0","16","0","0","0","16","16","16","16","09/09/18 21:06:58","1500","The main experiment item","yes","F:\","no","mono","no","18","no","white","no","yes","768","legacy","16","16","F:/mc-subject-1.csv","legacy","Jazzy James","3.1.9","0","s","NA","h","NA","NA","s","476","NA","30031","NA","NA","476","2","legacy","1024","2","48000","-16","experiment","HHSHH","1","odd","63459","34814","NA","NA","54163","4777","NA","NA","64561","4781","NA","NA","64664","65142","64557","64664","Flanker","15","9366","17","yes","1024"
"88.8888888889","88.8888888889","556.777777778","556.777777778","black","no","legacy","legacy","legacy","0","incongruent","uniform","1","undefined","1","h","17","0","0","0","17","0","17","0","17","0","0","0","17","17","17","17","09/09/18 21:06:58","1500","The main experiment item","yes","F:\","no","mono","no","18","no","white","no","yes","768","legacy","17","17","F:/mc-subject-1.csv","legacy","Jazzy James","3.1.9","0","h","NA","h","NA","NA","h","656","NA","30031","NA","NA","656","2","legacy","1024","2","48000","-16","experiment","SSHSS","1","odd","65155","34814","NA","NA","54163","4777","NA","NA","66267","4781","NA","NA","66370","67027","66263","66370","Flanker","16","10022","18","yes","1024"
"89.4736842105","89.4736842105","551.105263158","551.105263158","black","no","legacy","legacy","legacy","0","incongruent","uniform","1","undefined","1","s","18","0","0","0","18","0","18","0","18","0","0","0","18","18","18","18","09/09/18 21:06:58","1500","The main experiment item","yes","F:\","no","mono","no","18","no","white","no","yes","768","legacy","18","18","F:/mc-subject-1.csv","legacy","Jazzy James","3.1.9","0","s","NA","h","NA","NA","s","449","NA","30031","NA","NA","449","2","legacy","1024","2","48000","-16","experiment","HHSHH","1","odd","67039","34814","NA","NA","54163","4777","NA","NA","68146","4781","NA","NA","68249","68699","68142","68249","Flanker","17","10471","19","yes","1024"
"90","90","550.05","550.05","black","no","legacy","legacy","legacy","0","incongruent","uniform","1","undefined","1","h","19","0","0","0","19","0","19","0","19","0","0","0","19","19","19","19","09/09/18 21:06:58","1500","The main experiment item","yes","F:\","no","mono","no","18","no","white","no","yes","768","legacy","19","19","F:/mc-subject-1.csv","legacy","Jazzy James","3.1.9","0","h","NA","h","NA","NA","h","530","NA","30031","NA","NA","530","2","legacy","1024","2","48000","-16","experiment","SSHSS","1","odd","68714","34814","NA","NA","54163","4777","NA","NA","69811","4781","NA","NA","69915","70447","69807","69915","Flanker","18","11001","20","yes","1024"
"90.4761904762","90.4761904762","548.761904762","548.761904762","black","no","legacy","legacy","legacy","0","incongruent","uniform","1","undefined","1","h","20","0","0","0","20","0","20","0","20","0","0","0","20","20","20","20","09/09/18 21:06:58","1500","The main experiment item","yes","F:\","no","mono","no","18","no","white","no","yes","768","legacy","20","20","F:/mc-subject-1.csv","legacy","Jazzy James","3.1.9","0","h","NA","h","NA","NA","h","523","NA","30031","NA","NA","523","2","legacy","1024","2","48000","-16","experiment","SSHSS","1","odd","70458","34814","NA","NA","54163","4777","NA","NA","71565","4781","NA","NA","71668","72192","71560","71668","Flanker","19","11524","21","yes","1024"
"90.9090909091","90.9090909091","545.954545455","545.954545455","black","no","legacy","legacy","legacy","0","incongruent","uniform","1","undefined","1","h","21","0","0","0","21","0","21","0","21","0","0","0","21","21","21","21","09/09/18 21:06:58","1500","The main experiment item","yes","F:\","no","mono","no","18","no","white","no","yes","768","legacy","21","21","F:/mc-subject-1.csv","legacy","Jazzy James","3.1.9","0","h","NA","h","NA","NA","h","487","NA","30031","NA","NA","487","2","legacy","1024","2","48000","-16","experiment","SSHSS","1","odd","72206","34814","NA","NA","54163","4777","NA","NA","73316","4781","NA","NA","73420","73909","73312","73420","Flanker","20","12011","22","yes","1024"
"91.3043478261","91.3043478261","547.434782609","547.434782609","black","no","legacy","legacy","legacy","0","incongruent","uniform","1","undefined","1","s","22","0","0","0","22","0","22","0","22","0","0","0","22","22","22","22","09/09/18 21:06:58","1500","The main experiment item","yes","F:\","no","mono","no","18","no","white","no","yes","768","legacy","22","22","F:/mc-subject-1.csv","legacy","Jazzy James","3.1.9","0","s","NA","h","NA","NA","s","580","NA","30031","NA","NA","580","2","legacy","1024","2","48000","-16","experiment","HHSHH","1","odd","73921","34814","NA","NA","54163","4777","NA","NA","75030","4781","NA","NA","75133","75715","75026","75133","Flanker","21","12591","23","yes","1024"
"91.6666666667","91.6666666667","547.916666667","547.916666667","black","no","legacy","legacy","legacy","0","congruent","uniform","1","undefined","1","s","23","0","0","0","23","0","23","0","23","0","0","0","23","23","23","23","09/09/18 21:06:58","1500","The main experiment item","yes","F:\","no","mono","no","18","no","white","no","yes","768","legacy","23","23","F:/mc-subject-1.csv","legacy","Jazzy James","3.1.9","0","s","NA","h","NA","NA","s","559","NA","30031","NA","NA","559","2","legacy","1024","2","48000","-16","experiment","SSSSS","1","odd","75728","34814","NA","NA","54163","4777","NA","NA","76824","4781","NA","NA","76927","77489","76820","76926","Flanker","22","13150","24","yes","1024"
"92","92","544.52","544.52","black","no","legacy","legacy","legacy","0","congruent","uniform","1","undefined","1","s","24","0","0","0","24","0","24","0","24","0","0","0","24","24","24","24","09/09/18 21:06:58","1500","The main experiment item","yes","F:\","no","mono","no","18","no","white","no","yes","768","legacy","24","24","F:/mc-subject-1.csv","legacy","Jazzy James","3.1.9","0","s","NA","h","NA","NA","s","463","NA","30031","NA","NA","463","2","legacy","1024","2","48000","-16","experiment","SSSSS","1","odd","77505","34814","NA","NA","54163","4777","NA","NA","78611","4781","NA","NA","78714","79179","78607","78714","Flanker","23","13613","25","yes","1024"
"92.3076923077","92.3076923077","548.153846154","548.153846154","black","no","legacy","legacy","legacy","0","congruent","uniform","1","undefined","1","h","25","0","0","0","25","0","25","0","25","0","0","0","25","25","25","25","09/09/18 21:06:58","1500","The main experiment item","yes","F:\","no","mono","no","18","no","white","no","yes","768","legacy","25","25","F:/mc-subject-1.csv","legacy","Jazzy James","3.1.9","0","h","NA","h","NA","NA","h","639","NA","30031","NA","NA","639","2","legacy","1024","2","48000","-16","experiment","HHHHH","1","odd","79192","34814","NA","NA","54163","4777","NA","NA","80300","4781","NA","NA","80403","81044","80296","80403","Flanker","24","14252","26","yes","1024"
"92.5925925926","92.5925925926","546.703703704","546.703703704","black","no","legacy","legacy","legacy","0","incongruent","uniform","1","undefined","1","s","26","0","0","0","26","0","26","0","26","0","0","0","26","26","26","26","09/09/18 21:06:58","1500","The main experiment item","yes","F:\","no","mono","no","18","no","white","no","yes","768","legacy","26","26","F:/mc-subject-1.csv","legacy","Jazzy James","3.1.9","0","s","NA","h","NA","NA","s","509","NA","30031","NA","NA","509","2","legacy","1024","2","48000","-16","experiment","HHSHH","1","odd","81055","34814","NA","NA","54163","4777","NA","NA","82157","4781","NA","NA","82260","82771","82153","82260","Flanker","25","14761","27","yes","1024"
"92.8571428571","92.8571428571","548.5","548.5","black","no","legacy","legacy","legacy","0","incongruent","uniform","1","undefined","1","h","27","0","0","0","27","0","27","0","27","0","0","0","27","27","27","27","09/09/18 21:06:58","1500","The main experiment item","yes","F:\","no","mono","no","18","no","white","no","yes","768","legacy","27","27","F:/mc-subject-1.csv","legacy","Jazzy James","3.1.9","0","h","NA","h","NA","NA","h","597","NA","30031","NA","NA","597","2","legacy","1024","2","48000","-16","experiment","SSHSS","1","odd","82784","34814","NA","NA","54163","4777","NA","NA","83898","4781","NA","NA","84002","84601","83894","84001","Flanker","26","15358","28","yes","1024"
"93.1034482759","93.1034482759","544.827586207","544.827586207","black","no","legacy","legacy","legacy","0","congruent","uniform","1","undefined","1","h","28","0","0","0","28","0","28","0","28","0","0","0","28","28","28","28","09/09/18 21:06:58","1500","The main experiment item","yes","F:\","no","mono","no","18","no","white","no","yes","768","legacy","28","28","F:/mc-subject-1.csv","legacy","Jazzy James","3.1.9","0","h","NA","h","NA","NA","h","442","NA","30031","NA","NA","442","2","legacy","1024","2","48000","-16","experiment","HHHHH","1","odd","84614","34814","NA","NA","54163","4777","NA","NA","85719","4781","NA","NA","85822","86266","85715","85821","Flanker","27","15800","29","yes","1024"
"93.3333333333","93.3333333333","544.9","544.9","black","no","legacy","legacy","legacy","0","congruent","uniform","1","undefined","1","h","29","0","0","0","29","0","29","0","29","0","0","0","29","29","29","29","09/09/18 21:06:58","1500","The main experiment item","yes","F:\","no","mono","no","18","no","white","no","yes","768","legacy","29","29","F:/mc-subject-1.csv","legacy","Jazzy James","3.1.9","0","h","NA","h","NA","NA","h","547","NA","30031","NA","NA","547","2","legacy","1024","2","48000","-16","experiment","HHHHH","1","odd","86279","34814","NA","NA","54163","4777","NA","NA","87391","4781","NA","NA","87502","88051","87386","87502","Flanker","28","16347","30","yes","1024"
"93.5483870968","93.5483870968","542.903225806","542.903225806","black","no","legacy","legacy","legacy","0","incongruent","uniform","1","undefined","1","h","30","0","0","0","30","0","30","0","30","0","0","0","30","30","30","30","09/09/18 21:06:58","1500","The main experiment item","yes","F:\","no","mono","no","18","no","white","no","yes","768","legacy","30","30","F:/mc-subject-1.csv","legacy","Jazzy James","3.1.9","0","h","NA","h","NA","NA","h","483","NA","30031","NA","NA","483","2","legacy","1024","2","48000","-16","experiment","SSHSS","1","odd","88062","34814","NA","NA","54163","4777","NA","NA","89169","4781","NA","NA","89273","89758","89165","89273","Flanker","29","16830","31","yes","1024"
"93.75","93.75","543.40625","543.40625","black","no","legacy","legacy","legacy","0","congruent","uniform","1","undefined","1","s","31","0","0","0","31","0","31","0","31","0","0","0","31","31","31","31","09/09/18 21:06:58","1500","The main experiment item","yes","F:\","no","mono","no","18","no","white","no","yes","768","legacy","31","31","F:/mc-subject-1.csv","legacy","Jazzy James","3.1.9","0","s","NA","h","NA","NA","s","559","NA","30031","NA","NA","559","2","legacy","1024","2","48000","-16","experiment","SSSSS","1","odd","89771","34814","NA","NA","54163","4777","NA","NA","90873","4781","NA","NA","90976","91537","90869","90976","Flanker","30","17389","32","yes","1024"
"93.9393939394","93.9393939394","542.939393939","542.939393939","black","no","legacy","legacy","legacy","0","incongruent","uniform","1","undefined","1","h","32","0","0","0","32","0","32","0","32","0","0","0","32","32","32","32","09/09/18 21:06:58","1500","The main experiment item","yes","F:\","no","mono","no","18","no","white","no","yes","768","legacy","32","32","F:/mc-subject-1.csv","legacy","Jazzy James","3.1.9","0","h","NA","h","NA","NA","h","528","NA","30031","NA","NA","528","2","legacy","1024","2","48000","-16","experiment","SSHSS","1","odd","91548","34814","NA","NA","54163","4777","NA","NA","92640","4781","NA","NA","92743","93273","92636","92742","Flanker","31","17917","33","yes","1024"
"94.1176470588","94.1176470588","544.323529412","544.323529412","black","no","legacy","legacy","legacy","0","incongruent","uniform","1","undefined","1","h","33","0","0","0","33","0","33","0","33","0","0","0","33","33","33","33","09/09/18 21:06:58","1500","The main experiment item","yes","F:\","no","mono","no","18","no","white","no","yes","768","legacy","33","33","F:/mc-subject-1.csv","legacy","Jazzy James","3.1.9","0","h","NA","h","NA","NA","h","590","NA","30031","NA","NA","590","2","legacy","1024","2","48000","-16","experiment","SSHSS","1","odd","93286","34814","NA","NA","54163","4777","NA","NA","94387","4781","NA","NA","94490","95082","94383","94490","Flanker","32","18507","34","yes","1024"
"94.2857142857","94.2857142857","543.028571429","543.028571429","black","no","legacy","legacy","legacy","0","congruent","uniform","1","undefined","1","h","34","0","0","0","34","0","34","0","34","0","0","0","34","34","34","34","09/09/18 21:06:58","1500","The main experiment item","yes","F:\","no","mono","no","18","no","white","no","yes","768","legacy","34","34","F:/mc-subject-1.csv","legacy","Jazzy James","3.1.9","0","h","NA","h","NA","NA","h","499","NA","30031","NA","NA","499","2","legacy","1024","2","48000","-16","experiment","HHHHH","1","odd","95093","34814","NA","NA","54163","4777","NA","NA","96189","4781","NA","NA","96293","96794","96185","96293","Flanker","33","19006","35","yes","1024"
"94.4444444444","94.4444444444","543.361111111","543.361111111","black","no","legacy","legacy","legacy","0","incongruent","uniform","1","undefined","1","s","35","0","0","0","35","0","35","0","35","0","0","0","35","35","35","35","09/09/18 21:06:58","1500","The main experiment item","yes","F:\","no","mono","no","18","no","white","no","yes","768","legacy","35","35","F:/mc-subject-1.csv","legacy","Jazzy James","3.1.9","0","s","NA","h","NA","NA","s","555","NA","30031","NA","NA","555","2","legacy","1024","2","48000","-16","experiment","HHSHH","1","odd","96807","34814","NA","NA","54163","4777","NA","NA","97903","4781","NA","NA","98007","98565","97899","98007","Flanker","34","19561","36","yes","1024"
"94.5945945946","94.5945945946","541.513513514","541.513513514","black","no","legacy","legacy","legacy","0","incongruent","uniform","1","undefined","1","s","36","0","0","0","36","0","36","0","36","0","0","0","36","36","36","36","09/09/18 21:06:58","1500","The main experiment item","yes","F:\","no","mono","no","18","no","white","no","yes","768","legacy","36","36","F:/mc-subject-1.csv","legacy","Jazzy James","3.1.9","0","s","NA","h","NA","NA","s","475","NA","30031","NA","NA","475","2","legacy","1024","2","48000","-16","experiment","HHSHH","1","odd","98579","34814","NA","NA","54163","4777","NA","NA","99682","4781","NA","NA","99786","100263","99678","99786","Flanker","35","20036","37","yes","1024"
"94.7368421053","94.7368421053","540.315789474","540.315789474","black","no","legacy","legacy","legacy","0","congruent","uniform","1","undefined","1","s","37","0","0","0","37","0","37","0","37","0","0","0","37","37","37","37","09/09/18 21:06:58","1500","The main experiment item","yes","F:\","no","mono","no","18","no","white","no","yes","768","legacy","37","37","F:/mc-subject-1.csv","legacy","Jazzy James","3.1.9","0","s","NA","h","NA","NA","s","496","NA","30031","NA","NA","496","2","legacy","1024","2","48000","-16","experiment","SSSSS","1","odd","100276","34814","NA","NA","54163","4777","NA","NA","101386","4781","NA","NA","101490","101988","101382","101489","Flanker","36","20532","38","yes","1024"
"94.8717948718","94.8717948718","538.58974359","538.58974359","black","no","legacy","legacy","legacy","0","congruent","uniform","1","undefined","1","h","38","0","0","0","38","0","38","0","38","0","0","0","38","38","38","38","09/09/18 21:06:58","1500","The main experiment item","yes","F:\","no","mono","no","18","no","white","no","yes","768","legacy","38","38","F:/mc-subject-1.csv","legacy","Jazzy James","3.1.9","0","h","NA","h","NA","NA","h","473","NA","30031","NA","NA","473","2","legacy","1024","2","48000","-16","experiment","HHHHH","1","odd","102000","34814","NA","NA","54163","4777","NA","NA","103100","4781","NA","NA","103203","103678","103096","103203","Flanker","37","21005","39","yes","1024"
"95","95","536.725","536.725","black","no","legacy","legacy","legacy","0","congruent","uniform","1","undefined","1","h","39","0","0","0","39","0","39","0","39","0","0","0","39","39","39","39","09/09/18 21:06:58","1500","The main experiment item","yes","F:\","no","mono","no","18","no","white","no","yes","768","legacy","39","39","F:/mc-subject-1.csv","legacy","Jazzy James","3.1.9","0","h","NA","h","NA","NA","h","464","NA","30031","NA","NA","464","2","legacy","1024","2","48000","-16","experiment","HHHHH","1","odd","103691","34814","NA","NA","54163","4777","NA","NA","104788","4781","NA","NA","104892","105358","104784","104892","Flanker","38","21469","40","yes","1024"
"95.1219512195","95.1219512195","536.829268293","536.829268293","black","no","legacy","legacy","legacy","0","congruent","uniform","1","undefined","1","h","40","0","0","0","40","0","40","0","40","0","0","0","40","40","40","40","09/09/18 21:06:58","1500","The main experiment item","yes","F:\","no","mono","no","18","no","white","no","yes","768","legacy","40","40","F:/mc-subject-1.csv","legacy","Jazzy James","3.1.9","0","h","NA","h","NA","NA","h","541","NA","30031","NA","NA","541","2","legacy","1024","2","48000","-16","experiment","HHHHH","1","odd","105373","34814","NA","NA","54163","4777","NA","NA","106479","4781","NA","NA","106583","107126","106475","106583","Flanker","39","22010","41","yes","1024"
"95.2380952381","95.2380952381","533.285714286","533.285714286","black","no","legacy","legacy","legacy","0","congruent","uniform","1","undefined","1","h","41","0","0","0","41","0","41","0","41","0","0","0","41","41","41","41","09/09/18 21:06:58","1500","The main experiment item","yes","F:\","no","mono","no","18","no","white","no","yes","768","legacy","41","41","F:/mc-subject-1.csv","legacy","Jazzy James","3.1.9","0","h","NA","h","NA","NA","h","388","NA","30031","NA","NA","388","2","legacy","1024","2","48000","-16","experiment","HHHHH","1","odd","107138","34814","NA","NA","54163","4777","NA","NA","108240","4781","NA","NA","108343","108734","108236","108343","Flanker","40","22398","42","yes","1024"
"95.3488372093","95.3488372093","534.651162791","534.651162791","black","no","legacy","legacy","legacy","0","incongruent","uniform","1","undefined","1","h","42","0","0","0","42","0","42","0","42","0","0","0","42","42","42","42","09/09/18 21:06:58","1500","The main experiment item","yes","F:\","no","mono","no","18","no","white","no","yes","768","legacy","42","42","F:/mc-subject-1.csv","legacy","Jazzy James","3.1.9","0","h","NA","h","NA","NA","h","592","NA","30031","NA","NA","592","2","legacy","1024","2","48000","-16","experiment","SSHSS","1","odd","108748","34814","NA","NA","54163","4777","NA","NA","109845","4781","NA","NA","109948","110542","109841","109948","Flanker","41","22990","43","yes","1024"
"95.4545454545","95.4545454545","533.113636364","533.113636364","black","no","legacy","legacy","legacy","0","congruent","uniform","1","undefined","1","h","43","0","0","0","43","0","43","0","43","0","0","0","43","43","43","43","09/09/18 21:06:58","1500","The main experiment item","yes","F:\","no","mono","no","18","no","white","no","yes","768","legacy","43","43","F:/mc-subject-1.csv","legacy","Jazzy James","3.1.9","0","h","NA","h","NA","NA","h","467","NA","30031","NA","NA","467","2","legacy","1024","2","48000","-16","experiment","HHHHH","1","odd","110554","34814","NA","NA","54163","4777","NA","NA","111649","4781","NA","NA","111752","112221","111645","111752","Flanker","42","23457","44","yes","1024"
"95.5555555556","95.5555555556","532.422222222","532.422222222","black","no","legacy","legacy","legacy","0","congruent","uniform","1","undefined","1","s","44","0","0","0","44","0","44","0","44","0","0","0","44","44","44","44","09/09/18 21:06:58","1500","The main experiment item","yes","F:\","no","mono","no","18","no","white","no","yes","768","legacy","44","44","F:/mc-subject-1.csv","legacy","Jazzy James","3.1.9","0","s","NA","h","NA","NA","s","502","NA","30031","NA","NA","502","2","legacy","1024","2","48000","-16","experiment","SSSSS","1","odd","112235","34814","NA","NA","54163","4777","NA","NA","113331","4781","NA","NA","113435","113939","113327","113435","Flanker","43","23959","45","yes","1024"
"95.652173913","95.652173913","533.195652174","533.195652174","black","no","legacy","legacy","legacy","0","incongruent","uniform","1","undefined","1","s","45","0","0","0","45","0","45","0","45","0","0","0","45","45","45","45","09/09/18 21:06:58","1500","The main experiment item","yes","F:\","no","mono","no","18","no","white","no","yes","768","legacy","45","45","F:/mc-subject-1.csv","legacy","Jazzy James","3.1.9","0","s","NA","h","NA","NA","s","568","NA","30031","NA","NA","568","2","legacy","1024","2","48000","-16","experiment","HHSHH","1","odd","113951","34814","NA","NA","54163","4777","NA","NA","115053","4781","NA","NA","115167","115738","115048","115167","Flanker","44","24527","46","yes","1024"
"95.7446808511","95.7446808511","531.063829787","531.063829787","black","no","legacy","legacy","legacy","0","congruent","uniform","1","undefined","1","s","46","0","0","0","46","0","46","0","46","0","0","0","46","46","46","46","09/09/18 21:06:58","1500","The main experiment item","yes","F:\","no","mono","no","18","no","white","no","yes","768","legacy","46","46","F:/mc-subject-1.csv","legacy","Jazzy James","3.1.9","0","s","NA","h","NA","NA","s","433","NA","30031","NA","NA","433","2","legacy","1024","2","48000","-16","experiment","SSSSS","1","odd","115751","34814","NA","NA","54163","4777","NA","NA","116858","4781","NA","NA","116962","117398","116854","116962","Flanker","45","24960","47","yes","1024"
"95.8333333333","95.8333333333","528.5","528.5","black","no","legacy","legacy","legacy","0","congruent","uniform","1","undefined","1","h","47","0","0","0","47","0","47","0","47","0","0","0","47","47","47","47","09/09/18 21:06:58","1500","The main experiment item","yes","F:\","no","mono","no","18","no","white","no","yes","768","legacy","47","47","F:/mc-subject-1.csv","legacy","Jazzy James","3.1.9","0","h","NA","h","NA","NA","h","408","NA","30031","NA","NA","408","2","legacy","1024","2","48000","-16","experiment","HHHHH","1","odd","117410","34814","NA","NA","54163","4777","NA","NA","118585","4781","NA","NA","118688","119099","118579","118688","Flanker","46","25368","48","yes","1024"
"95.9183673469","95.9183673469","526.93877551","526.93877551","black","no","legacy","legacy","legacy","0","congruent","uniform","1","undefined","1","h","48","0","0","0","48","0","48","0","48","0","0","0","48","48","48","48","09/09/18 21:06:58","1500","The main experiment item","yes","F:\","no","mono","no","18","no","white","no","yes","768","legacy","48","48","F:/mc-subject-1.csv","legacy","Jazzy James","3.1.9","0","h","NA","h","NA","NA","h","452","NA","30031","NA","NA","452","2","legacy","1024","2","48000","-16","experiment","HHHHH","1","odd","119112","34814","NA","NA","54163","4777","NA","NA","120226","4781","NA","NA","120332","120786","120221","120332","Flanker","47","25820","49","yes","1024"
"96","96","523.68","523.68","black","no","legacy","legacy","legacy","0","incongruent","uniform","1","undefined","1","h","49","0","0","0","49","0","49","0","49","0","0","0","49","49","49","49","09/09/18 21:06:58","1500","The main experiment item","yes","F:\","no","mono","no","18","no","white","no","yes","768","legacy","49","49","F:/mc-subject-1.csv","legacy","Jazzy James","3.1.9","0","h","NA","h","NA","NA","h","364","NA","30031","NA","NA","364","2","legacy","1024","2","48000","-16","experiment","SSHSS","1","odd","120798","34814","NA","NA","54163","4777","NA","NA","121906","4781","NA","NA","122009","122376","121902","122009","Flanker","48","26184","50","yes","1024"
"96.0784313725","96.0784313725","521.705882353","521.705882353","black","no","legacy","legacy","legacy","0","incongruent","uniform","1","undefined","1","h","50","0","0","0","50","0","50","0","50","0","0","0","50","50","50","50","09/09/18 21:06:58","1500","The main experiment item","yes","F:\","no","mono","no","18","no","white","no","yes","768","legacy","50","50","F:/mc-subject-1.csv","legacy","Jazzy James","3.1.9","0","h","NA","h","NA","NA","h","423","NA","30031","NA","NA","423","2","legacy","1024","2","48000","-16","experiment","SSHSS","1","odd","122389","34814","NA","NA","54163","4777","NA","NA","123494","4781","NA","NA","123598","124025","123490","123598","Flanker","49","26607","51","yes","1024"
"96.1538461538","96.1538461538","518.711538462","518.711538462","black","no","legacy","legacy","legacy","0","congruent","uniform","1","undefined","1","h","51","0","0","0","51","0","51","0","51","0","0","0","51","51","51","51","09/09/18 21:06:58","1500","The main experiment item","yes","F:\","no","mono","no","18","no","white","no","yes","768","legacy","51","51","F:/mc-subject-1.csv","legacy","Jazzy James","3.1.9","0","h","NA","h","NA","NA","h","366","NA","30031","NA","NA","366","2","legacy","1024","2","48000","-16","experiment","HHHHH","1","odd","124039","34814","NA","NA","54163","4777","NA","NA","125149","4781","NA","NA","125252","125620","125145","125252","Flanker","50","26973","52","yes","1024"
"94.3396226415","94.3396226415","515.490566038","515.490566038","black","no","legacy","legacy","legacy","0","incongruent","uniform","0","undefined","0","s","52","0","0","0","52","0","52","0","52","0","0","0","52","52","52","52","09/09/18 21:06:58","1500","The main experiment item","yes","F:\","no","mono","no","18","no","white","no","yes","768","legacy","52","52","F:/mc-subject-1.csv","legacy","Jazzy James","3.1.9","0","h","NA","h","NA","NA","h","348","NA","30031","NA","NA","348","2","legacy","1024","2","48000","-16","experiment","HHSHH","1","odd","125636","34814","NA","NA","54163","4777","NA","NA","126758","4781","NA","NA","126862","127212","126754","126861","Flanker","50","27321","53","yes","1024"
"94.4444444444","94.4444444444","514.62962963","514.62962963","black","no","legacy","legacy","legacy","0","incongruent","uniform","1","undefined","1","h","53","0","0","0","53","0","53","0","53","0","0","0","53","53","53","53","09/09/18 21:06:58","1500","The main experiment item","yes","F:\","no","mono","no","18","no","white","no","yes","768","legacy","53","53","F:/mc-subject-1.csv","legacy","Jazzy James","3.1.9","0","h","NA","h","NA","NA","h","469","NA","30031","NA","NA","469","2","legacy","1024","2","48000","-16","experiment","SSHSS","1","odd","127728","34814","NA","NA","127224","4777","NA","NA","128832","4781","NA","NA","128938","129410","128828","128938","Flanker","51","27790","54","yes","1024"
"92.7272727273","92.7272727273","513.290909091","513.290909091","black","no","legacy","legacy","legacy","0","incongruent","uniform","0","undefined","0","s","54","0","0","0","54","0","54","0","54","0","0","0","54","54","54","54","09/09/18 21:06:58","1500","The main experiment item","yes","F:\","no","mono","no","18","no","white","no","yes","768","legacy","54","54","F:/mc-subject-1.csv","legacy","Jazzy James","3.1.9","0","h","NA","h","NA","NA","h","441","NA","30031","NA","NA","441","2","legacy","1024","2","48000","-16","experiment","HHSHH","1","odd","129423","34814","NA","NA","127224","4777","NA","NA","130536","4781","NA","NA","130642","131086","130531","130642","Flanker","51","28231","55","yes","1024"
"92.8571428571","92.8571428571","518.089285714","518.089285714","black","no","legacy","legacy","legacy","0","congruent","uniform","1","undefined","1","h","55","0","0","0","55","0","55","0","55","0","0","0","55","55","55","55","09/09/18 21:06:58","1500","The main experiment item","yes","F:\","no","mono","no","18","no","white","no","yes","768","legacy","55","55","F:/mc-subject-1.csv","legacy","Jazzy James","3.1.9","0","h","NA","h","NA","NA","h","782","NA","30031","NA","NA","782","2","legacy","1024","2","48000","-16","experiment","HHHHH","1","odd","131600","34814","NA","NA","131097","4777","NA","NA","132733","4781","NA","NA","132836","133620","132728","132836","Flanker","52","29013","56","yes","1024"
"92.9824561404","92.9824561404","517.175438596","517.175438596","black","no","legacy","legacy","legacy","0","congruent","uniform","1","undefined","1","s","56","0","0","0","56","0","56","0","56","0","0","0","56","56","56","56","09/09/18 21:06:58","1500","The main experiment item","yes","F:\","no","mono","no","18","no","white","no","yes","768","legacy","56","56","F:/mc-subject-1.csv","legacy","Jazzy James","3.1.9","0","s","NA","h","NA","NA","s","466","NA","30031","NA","NA","466","2","legacy","1024","2","48000","-16","experiment","SSSSS","1","odd","133633","34814","NA","NA","131097","4777","NA","NA","134739","4781","NA","NA","134846","135315","134735","134846","Flanker","53","29479","57","yes","1024"
"93.1034482759","93.1034482759","517.120689655","517.120689655","black","no","legacy","legacy","legacy","0","incongruent","uniform","1","undefined","1","h","57","0","0","0","57","0","57","0","57","0","0","0","57","57","57","57","09/09/18 21:06:58","1500","The main experiment item","yes","F:\","no","mono","no","18","no","white","no","yes","768","legacy","57","57","F:/mc-subject-1.csv","legacy","Jazzy James","3.1.9","0","h","NA","h","NA","NA","h","514","NA","30031","NA","NA","514","2","legacy","1024","2","48000","-16","experiment","SSHSS","1","odd","135326","34814","NA","NA","131097","4777","NA","NA","136434","4781","NA","NA","136538","137056","136429","136538","Flanker","54","29993","58","yes","1024"
"93.2203389831","93.2203389831","518.86440678","518.86440678","black","no","legacy","legacy","legacy","0","incongruent","uniform","1","undefined","1","s","58","0","0","0","58","0","58","0","58","0","0","0","58","58","58","58","09/09/18 21:06:58","1500","The main experiment item","yes","F:\","no","mono","no","18","no","white","no","yes","768","legacy","58","58","F:/mc-subject-1.csv","legacy","Jazzy James","3.1.9","0","s","NA","h","NA","NA","s","620","NA","30031","NA","NA","620","2","legacy","1024","2","48000","-16","experiment","HHSHH","1","odd","137070","34814","NA","NA","131097","4777","NA","NA","138182","4781","NA","NA","138286","138909","138178","138285","Flanker","55","30613","59","yes","1024"
"93.3333333333","93.3333333333","521.85","521.85","black","no","legacy","legacy","legacy","0","incongruent","uniform","1","undefined","1","s","59","0","0","0","59","0","59","0","59","0","0","0","59","59","59","59","09/09/18 21:06:58","1500","The main experiment item","yes","F:\","no","mono","no","18","no","white","no","yes","768","legacy","59","59","F:/mc-subject-1.csv","legacy","Jazzy James","3.1.9","0","s","NA","h","NA","NA","s","698","NA","30031","NA","NA","698","2","legacy","1024","2","48000","-16","experiment","HHSHH","1","odd","138921","34814","NA","NA","131097","4777","NA","NA","140044","4781","NA","NA","140147","140848","140040","140147","Flanker","56","31311","60","yes","1024"
"93.4426229508","93.4426229508","522.918032787","522.918032787","black","no","legacy","legacy","legacy","0","incongruent","uniform","1","undefined","1","s","60","0","0","0","60","0","60","0","60","0","0","0","60","60","60","60","09/09/18 21:06:58","1500","The main experiment item","yes","F:\","no","mono","no","18","no","white","no","yes","768","legacy","60","60","F:/mc-subject-1.csv","legacy","Jazzy James","3.1.9","0","s","NA","h","NA","NA","s","587","NA","30031","NA","NA","587","2","legacy","1024","2","48000","-16","experiment","HHSHH","1","odd","140860","34814","NA","NA","131097","4777","NA","NA","141971","4781","NA","NA","142074","142666","141967","142074","Flanker","57","31898","61","yes","1024"
"93.5483870968","93.5483870968","522.274193548","522.274193548","black","no","legacy","legacy","legacy","0","congruent","uniform","1","undefined","1","s","61","0","0","0","61","0","61","0","61","0","0","0","61","61","61","61","09/09/18 21:06:58","1500","The main experiment item","yes","F:\","no","mono","no","18","no","white","no","yes","768","legacy","61","61","F:/mc-subject-1.csv","legacy","Jazzy James","3.1.9","0","s","NA","h","NA","NA","s","483","NA","30031","NA","NA","483","2","legacy","1024","2","48000","-16","experiment","SSSSS","1","odd","142677","34814","NA","NA","131097","4777","NA","NA","143815","4781","NA","NA","143918","144404","143809","143918","Flanker","58","32381","62","yes","1024"
"93.6507936508","93.6507936508","522.031746032","522.031746032","black","no","legacy","legacy","legacy","0","incongruent","uniform","1","undefined","1","h","62","0","0","0","62","0","62","0","62","0","0","0","62","62","62","62","09/09/18 21:06:58","1500","The main experiment item","yes","F:\","no","mono","no","18","no","white","no","yes","768","legacy","62","62","F:/mc-subject-1.csv","legacy","Jazzy James","3.1.9","0","h","NA","h","NA","NA","h","507","NA","30031","NA","NA","507","2","legacy","1024","2","48000","-16","experiment","SSHSS","1","odd","144417","34814","NA","NA","131097","4777","NA","NA","145524","4781","NA","NA","145627","146137","145520","145627","Flanker","59","32888","63","yes","1024"
"93.75","93.75","522.40625","522.40625","black","no","legacy","legacy","legacy","0","congruent","uniform","1","undefined","1","h","63","0","0","0","63","0","63","0","63","0","0","0","63","63","63","63","09/09/18 21:06:58","1500","The main experiment item","yes","F:\","no","mono","no","18","no","white","no","yes","768","legacy","63","63","F:/mc-subject-1.csv","legacy","Jazzy James","3.1.9","0","h","NA","h","NA","NA","h","546","NA","30031","NA","NA","546","2","legacy","1024","2","48000","-16","experiment","HHHHH","1","odd","146151","34814","NA","NA","131097","4777","NA","NA","147255","4781","NA","NA","147358","147907","147251","147357","Flanker","60","33434","64","yes","1024"
"93.8461538462","93.8461538462","521.953846154","521.953846154","black","no","legacy","legacy","legacy","0","congruent","uniform","1","undefined","1","h","64","0","0","0","64","0","64","0","64","0","0","0","64","64","64","64","09/09/18 21:06:58","1500","The main experiment item","yes","F:\","no","mono","no","18","no","white","no","yes","768","legacy","64","64","F:/mc-subject-1.csv","legacy","Jazzy James","3.1.9","0","h","NA","h","NA","NA","h","493","NA","30031","NA","NA","493","2","legacy","1024","2","48000","-16","experiment","HHHHH","1","odd","147921","34814","NA","NA","131097","4777","NA","NA","149021","4781","NA","NA","149124","149620","149016","149124","Flanker","61","33927","65","yes","1024"
"93.9393939394","93.9393939394","523.045454545","523.045454545","black","no","legacy","legacy","legacy","0","incongruent","uniform","1","undefined","1","s","65","0","0","0","65","0","65","0","65","0","0","0","65","65","65","65","09/09/18 21:06:58","1500","The main experiment item","yes","F:\","no","mono","no","18","no","white","no","yes","768","legacy","65","65","F:/mc-subject-1.csv","legacy","Jazzy James","3.1.9","0","s","NA","h","NA","NA","s","594","NA","30031","NA","NA","594","2","legacy","1024","2","48000","-16","experiment","HHSHH","1","odd","149634","34814","NA","NA","131097","4777","NA","NA","150731","4781","NA","NA","150834","151431","150727","150834","Flanker","62","34521","66","yes","1024"
"94.0298507463","94.0298507463","522.582089552","522.582089552","black","no","legacy","legacy","legacy","0","congruent","uniform","1","undefined","1","h","66","0","0","0","66","0","66","0","66","0","0","0","66","66","66","66","09/09/18 21:06:58","1500","The main experiment item","yes","F:\","no","mono","no","18","no","white","no","yes","768","legacy","66","66","F:/mc-subject-1.csv","legacy","Jazzy James","3.1.9","0","h","NA","h","NA","NA","h","492","NA","30031","NA","NA","492","2","legacy","1024","2","48000","-16","experiment","HHHHH","1","odd","151442","34814","NA","NA","131097","4777","NA","NA","152543","4781","NA","NA","152647","153143","152539","152647","Flanker","63","35013","67","yes","1024"
"94.1176470588","94.1176470588","523.102941176","523.102941176","black","no","legacy","legacy","legacy","0","congruent","uniform","1","undefined","1","s","67","0","0","0","67","0","67","0","67","0","0","0","67","67","67","67","09/09/18 21:06:58","1500","The main experiment item","yes","F:\","no","mono","no","18","no","white","no","yes","768","legacy","67","67","F:/mc-subject-1.csv","legacy","Jazzy James","3.1.9","0","s","NA","h","NA","NA","s","558","NA","30031","NA","NA","558","2","legacy","1024","2","48000","-16","experiment","SSSSS","1","odd","153157","34814","NA","NA","131097","4777","NA","NA","154256","4781","NA","NA","154359","154920","154252","154359","Flanker","64","35571","68","yes","1024"
"94.2028985507","94.2028985507","522.231884058","522.231884058","black","no","legacy","legacy","legacy","0","congruent","uniform","1","undefined","1","s","68","0","0","0","68","0","68","0","68","0","0","0","68","68","68","68","09/09/18 21:06:58","1500","The main experiment item","yes","F:\","no","mono","no","18","no","white","no","yes","768","legacy","68","68","F:/mc-subject-1.csv","legacy","Jazzy James","3.1.9","0","s","NA","h","NA","NA","s","463","NA","30031","NA","NA","463","2","legacy","1024","2","48000","-16","experiment","SSSSS","1","odd","154933","34814","NA","NA","131097","4777","NA","NA","156042","4781","NA","NA","156145","156612","156037","156145","Flanker","65","36034","69","yes","1024"
"94.2857142857","94.2857142857","521.414285714","521.414285714","black","no","legacy","legacy","legacy","0","congruent","uniform","1","undefined","1","s","69","0","0","0","69","0","69","0","69","0","0","0","69","69","69","69","09/09/18 21:06:58","1500","The main experiment item","yes","F:\","no","mono","no","18","no","white","no","yes","768","legacy","69","69","F:/mc-subject-1.csv","legacy","Jazzy James","3.1.9","0","s","NA","h","NA","NA","s","465","NA","30031","NA","NA","465","2","legacy","1024","2","48000","-16","experiment","SSSSS","1","odd","156623","34814","NA","NA","131097","4777","NA","NA","157727","4781","NA","NA","157830","158299","157722","157830","Flanker","66","36499","70","yes","1024"
"94.3661971831","94.3661971831","521.605633803","521.605633803","black","no","legacy","legacy","legacy","0","incongruent","uniform","1","undefined","1","h","70","0","0","0","70","0","70","0","70","0","0","0","70","70","70","70","09/09/18 21:06:58","1500","The main experiment item","yes","F:\","no","mono","no","18","no","white","no","yes","768","legacy","70","70","F:/mc-subject-1.csv","legacy","Jazzy James","3.1.9","0","h","NA","h","NA","NA","h","535","NA","30031","NA","NA","535","2","legacy","1024","2","48000","-16","experiment","SSHSS","1","odd","158313","34814","NA","NA","131097","4777","NA","NA","159414","4781","NA","NA","159517","160056","159409","159516","Flanker","67","37034","71","yes","1024"
"94.4444444444","94.4444444444","522.861111111","522.861111111","black","no","legacy","legacy","legacy","0","incongruent","uniform","1","undefined","1","s","71","0","0","0","71","0","71","0","71","0","0","0","71","71","71","71","09/09/18 21:06:58","1500","The main experiment item","yes","F:\","no","mono","no","18","no","white","no","yes","768","legacy","71","71","F:/mc-subject-1.csv","legacy","Jazzy James","3.1.9","0","s","NA","h","NA","NA","s","612","NA","30031","NA","NA","612","2","legacy","1024","2","48000","-16","experiment","HHSHH","1","odd","160070","34814","NA","NA","131097","4777","NA","NA","161182","4781","NA","NA","161286","161905","161177","161285","Flanker","68","37646","72","yes","1024"
"94.5205479452","94.5205479452","526.890410959","526.890410959","black","no","legacy","legacy","legacy","0","incongruent","uniform","1","undefined","1","s","72","0","0","0","72","0","72","0","72","0","0","0","72","72","72","72","09/09/18 21:06:58","1500","The main experiment item","yes","F:\","no","mono","no","18","no","white","no","yes","768","legacy","72","72","F:/mc-subject-1.csv","legacy","Jazzy James","3.1.9","0","s","NA","h","NA","NA","s","817","NA","30031","NA","NA","817","2","legacy","1024","2","48000","-16","experiment","HHSHH","1","odd","161918","34814","NA","NA","131097","4777","NA","NA","163017","4781","NA","NA","163121","163941","163013","163121","Flanker","69","38463","73","yes","1024"
"94.5945945946","94.5945945946","526.851351351","526.851351351","black","no","legacy","legacy","legacy","0","congruent","uniform","1","undefined","1","h","73","0","0","0","73","0","73","0","73","0","0","0","73","73","73","73","09/09/18 21:06:58","1500","The main experiment item","yes","F:\","no","mono","no","18","no","white","no","yes","768","legacy","73","73","F:/mc-subject-1.csv","legacy","Jazzy James","3.1.9","0","h","NA","h","NA","NA","h","524","NA","30031","NA","NA","524","2","legacy","1024","2","48000","-16","experiment","HHHHH","1","odd","163954","34814","NA","NA","131097","4777","NA","NA","165061","4781","NA","NA","165164","165691","165057","165164","Flanker","70","38987","74","yes","1024"
"94.6666666667","94.6666666667","527.573333333","527.573333333","black","no","legacy","legacy","legacy","0","incongruent","uniform","1","undefined","1","h","74","0","0","0","74","0","74","0","74","0","0","0","74","74","74","74","09/09/18 21:06:58","1500","The main experiment item","yes","F:\","no","mono","no","18","no","white","no","yes","768","legacy","74","74","F:/mc-subject-1.csv","legacy","Jazzy James","3.1.9","0","h","NA","h","NA","NA","h","581","NA","30031","NA","NA","581","2","legacy","1024","2","48000","-16","experiment","SSHSS","1","odd","165705","34814","NA","NA","131097","4777","NA","NA","166821","4781","NA","NA","166924","167508","166815","166924","Flanker","71","39568","75","yes","1024"
"94.7368421053","94.7368421053","529.881578947","529.881578947","black","no","legacy","legacy","legacy","0","congruent","uniform","1","undefined","1","s","75","0","0","0","75","0","75","0","75","0","0","0","75","75","75","75","09/09/18 21:06:58","1500","The main experiment item","yes","F:\","no","mono","no","18","no","white","no","yes","768","legacy","75","75","F:/mc-subject-1.csv","legacy","Jazzy James","3.1.9","0","s","NA","h","NA","NA","s","703","NA","30031","NA","NA","703","2","legacy","1024","2","48000","-16","experiment","SSSSS","1","odd","167524","34814","NA","NA","131097","4777","NA","NA","168621","4781","NA","NA","168724","169431","168617","168724","Flanker","72","40271","76","yes","1024"
"94.8051948052","94.8051948052","529.012987013","529.012987013","black","no","legacy","legacy","legacy","0","congruent","uniform","1","undefined","1","h","76","0","0","0","76","0","76","0","76","0","0","0","76","76","76","76","09/09/18 21:06:58","1500","The main experiment item","yes","F:\","no","mono","no","18","no","white","no","yes","768","legacy","76","76","F:/mc-subject-1.csv","legacy","Jazzy James","3.1.9","0","h","NA","h","NA","NA","h","463","NA","30031","NA","NA","463","2","legacy","1024","2","48000","-16","experiment","HHHHH","1","odd","169443","34814","NA","NA","131097","4777","NA","NA","170559","4781","NA","NA","170663","171129","170553","170663","Flanker","73","40734","77","yes","1024"
"94.8717948718","94.8717948718","528.128205128","528.128205128","black","no","legacy","legacy","legacy","0","congruent","uniform","1","undefined","1","s","77","0","0","0","77","0","77","0","77","0","0","0","77","77","77","77","09/09/18 21:06:58","1500","The main experiment item","yes","F:\","no","mono","no","18","no","white","no","yes","768","legacy","77","77","F:/mc-subject-1.csv","legacy","Jazzy James","3.1.9","0","s","NA","h","NA","NA","s","460","NA","30031","NA","NA","460","2","legacy","1024","2","48000","-16","experiment","SSSSS","1","odd","171145","34814","NA","NA","131097","4777","NA","NA","172249","4781","NA","NA","172353","172817","172245","172353","Flanker","74","41194","78","yes","1024"
"94.9367088608","94.9367088608","529.189873418","529.189873418","black","no","legacy","legacy","legacy","0","congruent","uniform","1","undefined","1","s","78","0","0","0","78","0","78","0","78","0","0","0","78","78","78","78","09/09/18 21:06:58","1500","The main experiment item","yes","F:\","no","mono","no","18","no","white","no","yes","768","legacy","78","78","F:/mc-subject-1.csv","legacy","Jazzy James","3.1.9","0","s","NA","h","NA","NA","s","612","NA","30031","NA","NA","612","2","legacy","1024","2","48000","-16","experiment","SSSSS","1","odd","172828","34814","NA","NA","131097","4777","NA","NA","173935","4781","NA","NA","174039","174654","173931","174039","Flanker","75","41806","79","yes","1024"
"95","95","529.4875","529.4875","black","no","legacy","legacy","legacy","0","incongruent","uniform","1","undefined","1","h","79","0","0","0","79","0","79","0","79","0","0","0","79","79","79","79","09/09/18 21:06:58","1500","The main experiment item","yes","F:\","no","mono","no","18","no","white","no","yes","768","legacy","79","79","F:/mc-subject-1.csv","legacy","Jazzy James","3.1.9","0","h","NA","h","NA","NA","h","553","NA","30031","NA","NA","553","2","legacy","1024","2","48000","-16","experiment","SSHSS","1","odd","174667","34814","NA","NA","131097","4777","NA","NA","175770","4781","NA","NA","175873","176430","175766","175873","Flanker","76","42359","80","yes","1024"
"95.0617283951","95.0617283951","535.333333333","535.333333333","black","no","legacy","legacy","legacy","0","incongruent","uniform","1","undefined","1","s","80","0","0","0","80","0","80","0","80","0","0","0","80","80","80","80","09/09/18 21:06:58","600","The main experiment item","yes","F:\","no","mono","no","18","no","white","no","yes","768","legacy","0","79","F:/mc-subject-1.csv","legacy","Jazzy James","3.1.9","0","s","NA","h","s","NA","s","1003","NA","30031","97186","NA","1003","2","legacy","1024","2","48000","-16","experiment","HHSHH","1","odd","176441","34814","274663","NA","131097","4777","NA","NA","274769","4781","177473","NA","274873","275880","274766","274873","Flanker","77","43362","81","yes","1024"
"95.1219512195","95.1219512195","535.768292683","535.768292683","black","no","legacy","legacy","legacy","0","incongruent","uniform","1","undefined","1","h","81","0","0","0","81","0","81","0","81","0","0","0","81","81","81","81","09/09/18 21:06:58","600","The main experiment item","yes","F:\","no","mono","no","18","no","white","no","yes","768","legacy","1","79","F:/mc-subject-1.csv","legacy","Jazzy James","3.1.9","0","h","NA","h","s","NA","h","571","NA","30031","97186","NA","571","2","legacy","1024","2","48000","-16","experiment","SSHSS","1","odd","276400","34814","274663","NA","131097","4777","275896","NA","277498","4781","177473","NA","277602","278177","277494","277602","Flanker","78","43933","82","yes","1024"
"95.1807228916","95.1807228916","534.180722892","534.180722892","black","no","legacy","legacy","legacy","0","congruent","uniform","1","undefined","1","h","82","0","0","0","82","0","82","0","82","0","0","0","82","82","82","82","09/09/18 21:06:58","600","The main experiment item","yes","F:\","no","mono","no","18","no","white","no","yes","768","legacy","2","79","F:/mc-subject-1.csv","legacy","Jazzy James","3.1.9","0","h","NA","h","s","NA","h","404","NA","30031","97186","NA","404","2","legacy","1024","2","48000","-16","experiment","HHHHH","1","odd","278188","34814","274663","NA","131097","4777","275896","NA","279287","4781","177473","NA","279391","279798","279284","279391","Flanker","79","44337","83","yes","1024"
"95.2380952381","95.2380952381","532.083333333","532.083333333","black","no","legacy","legacy","legacy","0","congruent","uniform","1","undefined","1","h","83","0","0","0","83","0","83","0","83","0","0","0","83","83","83","83","09/09/18 21:06:58","600","The main experiment item","yes","F:\","no","mono","no","18","no","white","no","yes","768","legacy","3","79","F:/mc-subject-1.csv","legacy","Jazzy James","3.1.9","0","h","NA","h","s","NA","h","358","NA","30031","97186","NA","358","2","legacy","1024","2","48000","-16","experiment","HHHHH","1","odd","279809","34814","274663","NA","131097","4777","275896","NA","280924","4781","177473","NA","281027","281389","280919","281027","Flanker","80","44695","84","yes","1024"
"95.2941176471","95.2941176471","531.105882353","531.105882353","black","no","legacy","legacy","legacy","0","congruent","uniform","1","undefined","1","s","84","0","0","0","84","0","84","0","84","0","0","0","84","84","84","84","09/09/18 21:06:58","600","The main experiment item","yes","F:\","no","mono","no","18","no","white","no","yes","768","legacy","4","79","F:/mc-subject-1.csv","legacy","Jazzy James","3.1.9","0","s","NA","h","s","NA","s","449","NA","30031","97186","NA","449","2","legacy","1024","2","48000","-16","experiment","SSSSS","1","odd","281401","34814","274663","NA","131097","4777","275896","NA","282502","4781","177473","NA","282605","283058","282496","282605","Flanker","81","45144","85","yes","1024"
"94.1860465116","94.1860465116","529.686046512","529.686046512","black","no","legacy","legacy","legacy","0","incongruent","uniform","0","undefined","0","s","85","0","0","0","85","0","85","0","85","0","0","0","85","85","85","85","09/09/18 21:06:58","600","The main experiment item","yes","F:\","no","mono","no","18","no","white","no","yes","768","legacy","5","79","F:/mc-subject-1.csv","legacy","Jazzy James","3.1.9","0","h","NA","h","s","NA","h","409","NA","30031","97186","NA","409","2","legacy","1024","2","48000","-16","experiment","HHSHH","1","odd","283070","34814","274663","NA","131097","4777","275896","NA","284167","4781","177473","NA","284272","284684","284163","284271","Flanker","81","45553","86","yes","1024"
"94.2528735632","94.2528735632","528.356321839","528.356321839","black","no","legacy","legacy","legacy","0","congruent","uniform","1","undefined","1","s","86","0","0","0","86","0","86","0","86","0","0","0","86","86","86","86","09/09/18 21:06:58","600","The main experiment item","yes","F:\","no","mono","no","18","no","white","no","yes","768","legacy","6","79","F:/mc-subject-1.csv","legacy","Jazzy James","3.1.9","0","s","NA","h","s","NA","s","414","NA","30031","97186","NA","414","2","legacy","1024","2","48000","-16","experiment","SSSSS","1","odd","285201","34814","274663","NA","284697","4777","275896","NA","286299","4781","177473","NA","286402","286819","286295","286402","Flanker","82","45967","87","yes","1024"
"94.3181818182","94.3181818182","526.840909091","526.840909091","black","no","legacy","legacy","legacy","0","congruent","uniform","1","undefined","1","s","87","0","0","0","87","0","87","0","87","0","0","0","87","87","87","87","09/09/18 21:06:58","600","The main experiment item","yes","F:\","no","mono","no","18","no","white","no","yes","768","legacy","7","79","F:/mc-subject-1.csv","legacy","Jazzy James","3.1.9","0","s","NA","h","s","NA","s","395","NA","30031","97186","NA","395","2","legacy","1024","2","48000","-16","experiment","SSSSS","1","odd","286830","34814","274663","NA","284697","4777","275896","NA","287931","4781","177473","NA","288035","288434","287927","288035","Flanker","83","46362","88","yes","1024"
"93.2584269663","93.2584269663","525.460674157","525.460674157","black","no","legacy","legacy","legacy","0","incongruent","uniform","0","undefined","0","s","88","0","0","0","88","0","88","0","88","0","0","0","88","88","88","88","09/09/18 21:06:58","600","The main experiment item","yes","F:\","no","mono","no","18","no","white","no","yes","768","legacy","8","79","F:/mc-subject-1.csv","legacy","Jazzy James","3.1.9","0","h","NA","h","s","NA","h","404","NA","30031","97186","NA","404","2","legacy","1024","2","48000","-16","experiment","HHSHH","1","odd","288447","34814","274663","NA","284697","4777","275896","NA","289559","4781","177473","NA","289662","290070","289555","289662","Flanker","83","46766","89","yes","1024"
"92.2222222222","92.2222222222","524.288888889","524.288888889","black","no","legacy","legacy","legacy","0","congruent","uniform","0","undefined","0","h","89","0","0","0","89","0","89","0","89","0","0","0","89","89","89","89","09/09/18 21:06:58","600","The main experiment item","yes","F:\","no","mono","no","18","no","white","no","yes","768","legacy","9","79","F:/mc-subject-1.csv","legacy","Jazzy James","3.1.9","0","s","NA","h","s","NA","s","420","NA","30031","97186","NA","420","2","legacy","1024","2","48000","-16","experiment","HHHHH","1","odd","290584","34814","274663","NA","290081","4777","275896","NA","291686","4781","177473","NA","291790","292214","291682","291790","Flanker","83","47186","90","yes","1024"
"92.3076923077","92.3076923077","524.142857143","524.142857143","black","no","legacy","legacy","legacy","0","incongruent","uniform","1","undefined","1","h","90","0","0","0","90","0","90","0","90","0","0","0","90","90","90","90","09/09/18 21:06:58","600","The main experiment item","yes","F:\","no","mono","no","18","no","white","no","yes","768","legacy","10","79","F:/mc-subject-1.csv","legacy","Jazzy James","3.1.9","0","h","NA","h","s","NA","h","511","NA","30031","97186","NA","511","2","legacy","1024","2","48000","-16","experiment","SSHSS","1","odd","292729","34814","274663","NA","292226","4777","275896","NA","293826","4781","177473","NA","293930","294445","293823","293930","Flanker","84","47697","91","yes","1024"
"92.3913043478","92.3913043478","524.336956522","524.336956522","black","no","legacy","legacy","legacy","0","incongruent","uniform","1","undefined","1","s","91","0","0","0","91","0","91","0","91","0","0","0","91","91","91","91","09/09/18 21:06:58","600","The main experiment item","yes","F:\","no","mono","no","18","no","white","no","yes","768","legacy","11","79","F:/mc-subject-1.csv","legacy","Jazzy James","3.1.9","0","s","NA","h","s","NA","s","542","NA","30031","97186","NA","542","2","legacy","1024","2","48000","-16","experiment","HHSHH","1","odd","294456","34814","274663","NA","292226","4777","275896","NA","295566","4781","177473","NA","295670","296216","295562","295670","Flanker","85","48239","92","yes","1024"
"92.4731182796","92.4731182796","524.602150538","524.602150538","black","no","legacy","legacy","legacy","0","incongruent","uniform","1","undefined","1","s","92","0","0","0","92","0","92","0","92","0","0","0","92","92","92","92","09/09/18 21:06:58","600","The main experiment item","yes","F:\","no","mono","no","18","no","white","no","yes","768","legacy","12","79","F:/mc-subject-1.csv","legacy","Jazzy James","3.1.9","0","s","NA","h","s","NA","s","549","NA","30031","97186","NA","549","2","legacy","1024","2","48000","-16","experiment","HHSHH","1","odd","296229","34814","274663","NA","292226","4777","275896","NA","297330","4781","177473","NA","297434","297987","297326","297434","Flanker","86","48788","93","yes","1024"
"92.5531914894","92.5531914894","524.542553191","524.542553191","black","no","legacy","legacy","legacy","0","incongruent","uniform","1","undefined","1","h","93","0","0","0","93","0","93","0","93","0","0","0","93","93","93","93","09/09/18 21:06:58","600","The main experiment item","yes","F:\","no","mono","no","18","no","white","no","yes","768","legacy","13","79","F:/mc-subject-1.csv","legacy","Jazzy James","3.1.9","0","h","NA","h","s","NA","h","519","NA","30031","97186","NA","519","2","legacy","1024","2","48000","-16","experiment","SSHSS","1","odd","297998","34814","274663","NA","292226","4777","275896","NA","299100","4781","177473","NA","299207","299730","299096","299207","Flanker","87","49307","94","yes","1024"
"92.6315789474","92.6315789474","524.178947368","524.178947368","black","no","legacy","legacy","legacy","0","congruent","uniform","1","undefined","1","s","94","0","0","0","94","0","94","0","94","0","0","0","94","94","94","94","09/09/18 21:06:58","600","The main experiment item","yes","F:\","no","mono","no","18","no","white","no","yes","768","legacy","14","79","F:/mc-subject-1.csv","legacy","Jazzy James","3.1.9","0","s","NA","h","s","NA","s","490","NA","30031","97186","NA","490","2","legacy","1024","2","48000","-16","experiment","SSSSS","1","odd","299742","34814","274663","NA","292226","4777","275896","NA","300849","4781","177473","NA","300953","301447","300845","300952","Flanker","88","49797","95","yes","1024"
"92.7083333333","92.7083333333","523.520833333","523.520833333","black","no","legacy","legacy","legacy","0","congruent","uniform","1","undefined","1","h","95","0","0","0","95","0","95","0","95","0","0","0","95","95","95","95","09/09/18 21:06:58","600","The main experiment item","yes","F:\","no","mono","no","18","no","white","no","yes","768","legacy","15","79","F:/mc-subject-1.csv","legacy","Jazzy James","3.1.9","0","h","NA","h","s","NA","h","461","NA","30031","97186","NA","461","2","legacy","1024","2","48000","-16","experiment","HHHHH","1","odd","301459","34814","274663","NA","292226","4777","275896","NA","302567","4781","177473","NA","302670","303134","302563","302670","Flanker","89","50258","96","yes","1024"
"92.7835051546","92.7835051546","524.051546392","524.051546392","black","no","legacy","legacy","legacy","0","congruent","uniform","1","undefined","1","h","96","0","0","0","96","0","96","0","96","0","0","0","96","96","96","96","09/09/18 21:06:58","600","The main experiment item","yes","F:\","no","mono","no","18","no","white","no","yes","768","legacy","16","79","F:/mc-subject-1.csv","legacy","Jazzy James","3.1.9","0","h","NA","h","s","NA","h","575","NA","30031","97186","NA","575","2","legacy","1024","2","48000","-16","experiment","HHHHH","1","odd","303147","34814","274663","NA","292226","4777","275896","NA","304245","4781","177473","NA","304348","304927","304240","304347","Flanker","90","50833","97","yes","1024"
"92.8571428571","92.8571428571","523.693877551","523.693877551","black","no","legacy","legacy","legacy","0","congruent","uniform","1","undefined","1","s","97","0","0","0","97","0","97","0","97","0","0","0","97","97","97","97","09/09/18 21:06:58","600","The main experiment item","yes","F:\","no","mono","no","18","no","white","no","yes","768","legacy","17","79","F:/mc-subject-1.csv","legacy","Jazzy James","3.1.9","0","s","NA","h","s","NA","s","489","NA","30031","97186","NA","489","2","legacy","1024","2","48000","-16","experiment","SSSSS","1","odd","304939","34814","274663","NA","292226","4777","275896","NA","306046","4781","177473","NA","306149","306641","306041","306149","Flanker","91","51322","98","yes","1024"
"92.9292929293","92.9292929293","523.646464646","523.646464646","black","no","legacy","legacy","legacy","0","incongruent","uniform","1","undefined","1","h","98","0","0","0","98","0","98","0","98","0","0","0","98","98","98","98","09/09/18 21:06:58","600","The main experiment item","yes","F:\","no","mono","no","18","no","white","no","yes","768","legacy","18","79","F:/mc-subject-1.csv","legacy","Jazzy James","3.1.9","0","h","NA","h","s","NA","h","519","NA","30031","97186","NA","519","2","legacy","1024","2","48000","-16","experiment","SSHSS","1","odd","306657","34814","274663","NA","292226","4777","275896","NA","307769","4781","177473","NA","307872","308395","307765","307872","Flanker","92","51841","99","yes","1024"
"93","93","523.73","523.73","black","no","legacy","legacy","legacy","0","congruent","uniform","1","undefined","1","s","99","0","0","0","99","0","99","0","99","0","0","0","99","99","99","99","09/09/18 21:06:58","600","The main experiment item","yes","F:\","no","mono","no","18","no","white","no","yes","768","legacy","19","79","F:/mc-subject-1.csv","legacy","Jazzy James","3.1.9","0","s","NA","h","s","NA","s","532","NA","30031","97186","NA","532","2","legacy","1024","2","48000","-16","experiment","SSSSS","1","odd","308406","34814","274663","NA","292226","4777","275896","NA","309508","4781","177473","NA","309611","310147","309504","309610","Flanker","93","52373","100","yes","1024"
"93.0693069307","93.0693069307","522.01980198","522.01980198","black","no","legacy","legacy","legacy","0","incongruent","uniform","1","undefined","1","h","100","0","0","0","100","0","100","0","100","0","0","0","100","100","100","100","09/09/18 21:06:58","600","The main experiment item","yes","F:\","no","mono","no","18","no","white","no","yes","768","legacy","20","79","F:/mc-subject-1.csv","legacy","Jazzy James","3.1.9","0","h","NA","h","s","NA","h","351","NA","30031","97186","NA","351","2","legacy","1024","2","48000","-16","experiment","SSHSS","1","odd","310159","34814","274663","NA","292226","4777","275896","NA","311259","4781","177473","NA","311362","311717","311254","311361","Flanker","94","52724","101","yes","1024"
"93.137254902","93.137254902","521.156862745","521.156862745","black","no","legacy","legacy","legacy","0","congruent","uniform","1","undefined","1","h","101","0","0","0","101","0","101","0","101","0","0","0","101","101","101","101","09/09/18 21:06:58","600","The main experiment item","yes","F:\","no","mono","no","18","no","white","no","yes","768","legacy","21","79","F:/mc-subject-1.csv","legacy","Jazzy James","3.1.9","0","h","NA","h","s","NA","h","434","NA","30031","97186","NA","434","2","legacy","1024","2","48000","-16","experiment","HHHHH","1","odd","311728","34814","274663","NA","292226","4777","275896","NA","312828","4781","177473","NA","312932","313370","312824","312931","Flanker","95","53158","102","yes","1024"
"93.2038834951","93.2038834951","520.640776699","520.640776699","black","no","legacy","legacy","legacy","0","congruent","uniform","1","undefined","1","s","102","0","0","0","102","0","102","0","102","0","0","0","102","102","102","102","09/09/18 21:06:58","600","The main experiment item","yes","F:\","no","mono","no","18","no","white","no","yes","768","legacy","22","79","F:/mc-subject-1.csv","legacy","Jazzy James","3.1.9","0","s","NA","h","s","NA","s","468","NA","30031","97186","NA","468","2","legacy","1024","2","48000","-16","experiment","SSSSS","1","odd","313382","34814","274663","NA","292226","4777","275896","NA","314490","4781","177473","NA","314594","315066","314485","314593","Flanker","96","53626","103","yes","1024"
"93.2692307692","93.2692307692","520.307692308","520.307692308","black","no","legacy","legacy","legacy","0","incongruent","uniform","1","undefined","1","h","103","0","0","0","103","0","103","0","103","0","0","0","103","103","103","103","09/09/18 21:06:58","600","The main experiment item","yes","F:\","no","mono","no","18","no","white","no","yes","768","legacy","23","79","F:/mc-subject-1.csv","legacy","Jazzy James","3.1.9","0","h","NA","h","s","NA","h","486","NA","30031","97186","NA","486","2","legacy","1024","2","48000","-16","experiment","SSHSS","1","odd","315079","34814","274663","NA","292226","4777","275896","NA","316181","4781","177473","NA","316284","316774","316177","316284","Flanker","97","54112","104","yes","1024"
"93.3333333333","93.3333333333","520.723809524","520.723809524","black","no","legacy","legacy","legacy","0","incongruent","uniform","1","undefined","1","h","104","0","0","0","104","0","104","0","104","0","0","0","104","104","104","104","09/09/18 21:06:58","600","The main experiment item","yes","F:\","no","mono","no","18","no","white","no","yes","768","legacy","24","79","F:/mc-subject-1.csv","legacy","Jazzy James","3.1.9","0","h","NA","h","s","NA","h","564","NA","30031","97186","NA","564","2","legacy","1024","2","48000","-16","experiment","SSHSS","1","odd","316786","34814","274663","NA","292226","4777","275896","NA","317888","4781","177473","NA","317991","318560","317884","317991","Flanker","98","54676","105","yes","1024"
"93.3962264151","93.3962264151","520.028301887","520.028301887","black","no","legacy","legacy","legacy","0","congruent","uniform","1","undefined","1","h","105","0","0","0","105","0","105","0","105","0","0","0","105","105","105","105","09/09/18 21:06:58","600","The main experiment item","yes","F:\","no","mono","no","18","no","white","no","yes","768","legacy","25","79","F:/mc-subject-1.csv","legacy","Jazzy James","3.1.9","0","h","NA","h","s","NA","h","447","NA","30031","97186","NA","447","2","legacy","1024","2","48000","-16","experiment","HHHHH","1","odd","318572","34814","274663","NA","292226","4777","275896","NA","319674","4781","177473","NA","319778","320229","319670","319778","Flanker","99","55123","106","yes","1024"
"93.4579439252","93.4579439252","518.841121495","518.841121495","black","no","legacy","legacy","legacy","0","congruent","uniform","1","undefined","1","h","106","0","0","0","106","0","106","0","106","0","0","0","106","106","106","106","09/09/18 21:06:58","600","The main experiment item","yes","F:\","no","mono","no","18","no","white","no","yes","768","legacy","26","79","F:/mc-subject-1.csv","legacy","Jazzy James","3.1.9","0","h","NA","h","s","NA","h","393","NA","30031","97186","NA","393","2","legacy","1024","2","48000","-16","experiment","HHHHH","1","odd","320241","34814","274663","NA","292226","4777","275896","NA","321340","4781","177473","NA","321443","321840","321336","321443","Flanker","100","55516","107","yes","1024"
"93.5185185185","93.5185185185","517.731481481","517.731481481","black","no","legacy","legacy","legacy","0","congruent","uniform","1","undefined","1","s","107","0","0","0","107","0","107","0","107","0","0","0","107","107","107","107","09/09/18 21:06:58","600","The main experiment item","yes","F:\","no","mono","no","18","no","white","no","yes","768","legacy","27","79","F:/mc-subject-1.csv","legacy","Jazzy James","3.1.9","0","s","NA","h","s","NA","s","399","NA","30031","97186","NA","399","2","legacy","1024","2","48000","-16","experiment","SSSSS","1","odd","321852","34814","274663","NA","292226","4777","275896","NA","322949","4781","177473","NA","323053","323456","322945","323052","Flanker","101","55915","108","yes","1024"
"93.5779816514","93.5779816514","516.944954128","516.944954128","black","no","legacy","legacy","legacy","0","incongruent","uniform","1","undefined","1","s","108","0","0","0","108","0","108","0","108","0","0","0","108","108","108","108","09/09/18 21:06:58","600","The main experiment item","yes","F:\","no","mono","no","18","no","white","no","yes","768","legacy","28","79","F:/mc-subject-1.csv","legacy","Jazzy James","3.1.9","0","s","NA","h","s","NA","s","432","NA","30031","97186","NA","432","2","legacy","1024","2","48000","-16","experiment","HHSHH","1","odd","323468","34814","274663","NA","292226","4777","275896","NA","324582","4781","177473","NA","324685","325122","324577","324684","Flanker","102","56347","109","yes","1024"
"93.6363636364","93.6363636364","516.4","516.4","black","no","legacy","legacy","legacy","0","incongruent","uniform","1","undefined","1","s","109","0","0","0","109","0","109","0","109","0","0","0","109","109","109","109","09/09/18 21:06:58","600","The main experiment item","yes","F:\","no","mono","no","18","no","white","no","yes","768","legacy","29","79","F:/mc-subject-1.csv","legacy","Jazzy James","3.1.9","0","s","NA","h","s","NA","s","457","NA","30031","97186","NA","457","2","legacy","1024","2","48000","-16","experiment","HHSHH","1","odd","325136","34814","274663","NA","292226","4777","275896","NA","326238","4781","177473","NA","326341","326803","326234","326341","Flanker","103","56804","110","yes","1024"
"93.6936936937","93.6936936937","515.27027027","515.27027027","black","no","legacy","legacy","legacy","0","congruent","uniform","1","undefined","1","h","110","0","0","0","110","0","110","0","110","0","0","0","110","110","110","110","09/09/18 21:06:58","600","The main experiment item","yes","F:\","no","mono","no","18","no","white","no","yes","768","legacy","30","79","F:/mc-subject-1.csv","legacy","Jazzy James","3.1.9","0","h","NA","h","s","NA","h","391","NA","30031","97186","NA","391","2","legacy","1024","2","48000","-16","experiment","HHHHH","1","odd","326814","34814","274663","NA","292226","4777","275896","NA","327909","4781","177473","NA","328012","328407","327905","328012","Flanker","104","57195","111","yes","1024"
"93.75","93.75","514.598214286","514.598214286","black","no","legacy","legacy","legacy","0","congruent","uniform","1","undefined","1","s","111","0","0","0","111","0","111","0","111","0","0","0","111","111","111","111","09/09/18 21:06:58","600","The main experiment item","yes","F:\","no","mono","no","18","no","white","no","yes","768","legacy","31","79","F:/mc-subject-1.csv","legacy","Jazzy James","3.1.9","0","s","NA","h","s","NA","s","440","NA","30031","97186","NA","440","2","legacy","1024","2","48000","-16","experiment","SSSSS","1","odd","328420","34814","274663","NA","292226","4777","275896","NA","329519","4781","177473","NA","329622","330066","329514","329622","Flanker","105","57635","112","yes","1024"
"93.8053097345","93.8053097345","514.566371681","514.566371681","black","no","legacy","legacy","legacy","0","incongruent","uniform","1","undefined","1","s","112","0","0","0","112","0","112","0","112","0","0","0","112","112","112","112","09/09/18 21:06:58","600","The main experiment item","yes","F:\","no","mono","no","18","no","white","no","yes","768","legacy","32","79","F:/mc-subject-1.csv","legacy","Jazzy James","3.1.9","0","s","NA","h","s","NA","s","511","NA","30031","97186","NA","511","2","legacy","1024","2","48000","-16","experiment","HHSHH","1","odd","330077","34814","274663","NA","292226","4777","275896","NA","331178","4781","177473","NA","331282","331797","331174","331282","Flanker","106","58146","113","yes","1024"
"93.8596491228","93.8596491228","514.675438596","514.675438596","black","no","legacy","legacy","legacy","0","incongruent","uniform","1","undefined","1","h","113","0","0","0","113","0","113","0","113","0","0","0","113","113","113","113","09/09/18 21:06:58","600","The main experiment item","yes","F:\","no","mono","no","18","no","white","no","yes","768","legacy","33","79","F:/mc-subject-1.csv","legacy","Jazzy James","3.1.9","0","h","NA","h","s","NA","h","527","NA","30031","97186","NA","527","2","legacy","1024","2","48000","-16","experiment","SSHSS","1","odd","331809","34814","274663","NA","292226","4777","275896","NA","332915","4781","177473","NA","333018","333550","332910","333018","Flanker","107","58673","114","yes","1024"
"93.9130434783","93.9130434783","515.426086957","515.426086957","black","no","legacy","legacy","legacy","0","congruent","uniform","1","undefined","1","s","114","0","0","0","114","0","114","0","114","0","0","0","114","114","114","114","09/09/18 21:06:58","600","The main experiment item","yes","F:\","no","mono","no","18","no","white","no","yes","768","legacy","34","79","F:/mc-subject-1.csv","legacy","Jazzy James","3.1.9","0","s","NA","h","s","NA","s","601","NA","30031","97186","NA","601","2","legacy","1024","2","48000","-16","experiment","SSSSS","1","odd","333560","34814","274663","NA","292226","4777","275896","NA","334668","4781","177473","NA","334771","335377","334663","334771","Flanker","108","59274","115","yes","1024"
"93.9655172414","93.9655172414","516.120689655","516.120689655","black","no","legacy","legacy","legacy","0","congruent","uniform","1","undefined","1","h","115","0","0","0","115","0","115","0","115","0","0","0","115","115","115","115","09/09/18 21:06:58","600","The main experiment item","yes","F:\","no","mono","no","18","no","white","no","yes","768","legacy","35","79","F:/mc-subject-1.csv","legacy","Jazzy James","3.1.9","0","h","NA","h","s","NA","h","596","NA","30031","97186","NA","596","2","legacy","1024","2","48000","-16","experiment","HHHHH","1","odd","335893","34814","274663","NA","292226","4777","335390","NA","336990","4781","177473","NA","337094","337695","336986","337093","Flanker","109","59870","116","yes","1024"
"94.0170940171","94.0170940171","515.564102564","515.564102564","black","no","legacy","legacy","legacy","0","incongruent","uniform","1","undefined","1","s","116","0","0","0","116","0","116","0","116","0","0","0","116","116","116","116","09/09/18 21:06:58","600","The main experiment item","yes","F:\","no","mono","no","18","no","white","no","yes","768","legacy","36","79","F:/mc-subject-1.csv","legacy","Jazzy James","3.1.9","0","s","NA","h","s","NA","s","451","NA","30031","97186","NA","451","2","legacy","1024","2","48000","-16","experiment","HHSHH","1","odd","337705","34814","274663","NA","292226","4777","335390","NA","338798","4781","177473","NA","338901","339356","338794","338901","Flanker","110","60321","117","yes","1024"
"94.0677966102","94.0677966102","513.915254237","513.915254237","black","no","legacy","legacy","legacy","0","congruent","uniform","1","undefined","1","s","117","0","0","0","117","0","117","0","117","0","0","0","117","117","117","117","09/09/18 21:06:58","600","The main experiment item","yes","F:\","no","mono","no","18","no","white","no","yes","768","legacy","37","79","F:/mc-subject-1.csv","legacy","Jazzy James","3.1.9","0","s","NA","h","s","NA","s","321","NA","30031","97186","NA","321","2","legacy","1024","2","48000","-16","experiment","SSSSS","1","odd","339368","34814","274663","NA","292226","4777","335390","NA","340477","4781","177473","NA","340581","340907","340473","340580","Flanker","111","60642","118","yes","1024"
"94.1176470588","94.1176470588","512.81512605","512.81512605","black","no","legacy","legacy","legacy","0","congruent","uniform","1","undefined","1","s","118","0","0","0","118","0","118","0","118","0","0","0","118","118","118","118","09/09/18 21:06:58","600","The main experiment item","yes","F:\","no","mono","no","18","no","white","no","yes","768","legacy","38","79","F:/mc-subject-1.csv","legacy","Jazzy James","3.1.9","0","s","NA","h","s","NA","s","383","NA","30031","97186","NA","383","2","legacy","1024","2","48000","-16","experiment","SSSSS","1","odd","340920","34814","274663","NA","292226","4777","335390","NA","342021","4781","177473","NA","342124","342512","342017","342124","Flanker","112","61025","119","yes","1024"
"94.1666666667","94.1666666667","512.133333333","512.133333333","black","no","legacy","legacy","legacy","0","incongruent","uniform","1","undefined","1","s","119","0","0","0","119","0","119","0","119","0","0","0","119","119","119","119","09/09/18 21:06:58","600","The main experiment item","yes","F:\","no","mono","no","18","no","white","no","yes","768","legacy","39","79","F:/mc-subject-1.csv","legacy","Jazzy James","3.1.9","0","s","NA","h","s","NA","s","431","NA","30031","97186","NA","431","2","legacy","1024","2","48000","-16","experiment","HHSHH","1","odd","342524","34814","274663","NA","292226","4777","335390","NA","343630","4781","177473","NA","343733","344168","343626","343733","Flanker","113","61456","120","yes","1024"
"93.3884297521","93.3884297521","511.016528926","511.016528926","black","no","legacy","legacy","legacy","0","incongruent","uniform","0","undefined","0","h","120","0","0","0","120","0","120","0","120","0","0","0","120","120","120","120","09/09/18 21:06:58","600","The main experiment item","yes","F:\","no","mono","no","18","no","white","no","yes","768","legacy","40","79","F:/mc-subject-1.csv","legacy","Jazzy James","3.1.9","0","s","NA","h","s","NA","s","377","NA","30031","97186","NA","377","2","legacy","1024","2","48000","-16","experiment","SSHSS","1","odd","344181","34814","274663","NA","292226","4777","335390","NA","345276","4781","177473","NA","345380","345761","345272","345379","Flanker","113","61833","121","yes","1024"
"93.4426229508","93.4426229508","511.483606557","511.483606557","black","no","legacy","legacy","legacy","0","incongruent","uniform","1","undefined","1","h","121","0","0","0","121","0","121","0","121","0","0","0","121","121","121","121","09/09/18 21:06:58","600","The main experiment item","yes","F:\","no","mono","no","18","no","white","no","yes","768","legacy","41","79","F:/mc-subject-1.csv","legacy","Jazzy James","3.1.9","0","h","NA","h","s","NA","h","568","NA","30031","97186","NA","568","2","legacy","1024","2","48000","-16","experiment","SSHSS","1","odd","346276","34814","274663","NA","345772","4777","335390","NA","347370","4781","177473","NA","347473","348045","347366","347473","Flanker","114","62401","122","yes","1024"
"93.4959349593","93.4959349593","511.170731707","511.170731707","black","no","legacy","legacy","legacy","0","incongruent","uniform","1","undefined","1","s","122","0","0","0","122","0","122","0","122","0","0","0","122","122","122","122","09/09/18 21:06:58","600","The main experiment item","yes","F:\","no","mono","no","18","no","white","no","yes","768","legacy","42","79","F:/mc-subject-1.csv","legacy","Jazzy James","3.1.9","0","s","NA","h","s","NA","s","473","NA","30031","97186","NA","473","2","legacy","1024","2","48000","-16","experiment","HHSHH","1","odd","348059","34814","274663","NA","345772","4777","335390","NA","349156","4781","177473","NA","349259","349737","349152","349259","Flanker","115","62874","123","yes","1024"
"93.5483870968","93.5483870968","511.266129032","511.266129032","black","no","legacy","legacy","legacy","0","incongruent","uniform","1","undefined","1","h","123","0","0","0","123","0","123","0","123","0","0","0","123","123","123","123","09/09/18 21:06:58","600","The main experiment item","yes","F:\","no","mono","no","18","no","white","no","yes","768","legacy","43","79","F:/mc-subject-1.csv","legacy","Jazzy James","3.1.9","0","h","NA","h","s","NA","h","523","NA","30031","97186","NA","523","2","legacy","1024","2","48000","-16","experiment","SSHSS","1","odd","349747","34814","274663","NA","345772","4777","335390","NA","350846","4781","177473","NA","350949","351477","350841","350949","Flanker","116","63397","124","yes","1024"
"93.6","93.6","512.08","512.08","black","no","legacy","legacy","legacy","0","incongruent","uniform","1","undefined","1","h","124","0","0","0","124","0","124","0","124","0","0","0","124","124","124","124","09/09/18 21:06:58","600","The main experiment item","yes","F:\","no","mono","no","18","no","white","no","yes","768","legacy","44","79","F:/mc-subject-1.csv","legacy","Jazzy James","3.1.9","0","h","NA","h","s","NA","h","613","NA","30031","97186","NA","613","2","legacy","1024","2","48000","-16","experiment","SSHSS","1","odd","351487","34814","274663","NA","345772","4777","335390","NA","352581","4781","177473","NA","352684","353302","352576","352684","Flanker","117","64010","125","yes","1024"
"93.6507936508","93.6507936508","512.888888889","512.888888889","black","no","legacy","legacy","legacy","0","congruent","uniform","1","undefined","1","h","125","0","0","0","125","0","125","0","125","0","0","0","125","125","125","125","09/09/18 21:06:58","600","The main experiment item","yes","F:\","no","mono","no","18","no","white","no","yes","768","legacy","45","79","F:/mc-subject-1.csv","legacy","Jazzy James","3.1.9","0","h","NA","h","s","NA","h","614","NA","30031","97186","NA","614","2","legacy","1024","2","48000","-16","experiment","HHHHH","1","odd","353815","34814","274663","NA","345772","4777","353313","NA","354905","4781","177473","NA","355010","355629","354902","355009","Flanker","118","64624","126","yes","1024"
"93.7007874016","93.7007874016","512.637795276","512.637795276","black","no","legacy","legacy","legacy","0","congruent","uniform","1","undefined","1","s","126","0","0","0","126","0","126","0","126","0","0","0","126","126","126","126","09/09/18 21:06:58","600","The main experiment item","yes","F:\","no","mono","no","18","no","white","no","yes","768","legacy","46","79","F:/mc-subject-1.csv","legacy","Jazzy James","3.1.9","0","s","NA","h","s","NA","s","481","NA","30031","97186","NA","481","2","legacy","1024","2","48000","-16","experiment","SSSSS","1","odd","356142","34814","274663","NA","345772","4777","355639","NA","357248","4781","177473","NA","357351","357837","357244","357351","Flanker","119","65105","127","yes","1024"
"92.96875","92.96875","511.8984375","511.8984375","black","no","legacy","legacy","legacy","0","incongruent","uniform","0","undefined","0","s","127","0","0","0","127","0","127","0","127","0","0","0","127","127","127","127","09/09/18 21:06:58","600","The main experiment item","yes","F:\","no","mono","no","18","no","white","no","yes","768","legacy","47","79","F:/mc-subject-1.csv","legacy","Jazzy James","3.1.9","0","h","NA","h","s","NA","h","418","NA","30031","97186","NA","418","2","legacy","1024","2","48000","-16","experiment","HHSHH","1","odd","357848","34814","274663","NA","345772","4777","355639","NA","358948","4781","177473","NA","359051","359474","358944","359051","Flanker","119","65523","128","yes","1024"
"92.2480620155","92.2480620155","511.674418605","511.674418605","black","no","legacy","legacy","legacy","0","incongruent","uniform","0","undefined","0","s","128","0","0","0","128","0","128","0","128","0","0","0","128","128","128","128","09/09/18 21:06:58","600","The main experiment item","yes","F:\","no","mono","no","18","no","white","no","yes","768","legacy","48","79","F:/mc-subject-1.csv","legacy","Jazzy James","3.1.9","0","h","NA","h","s","NA","h","483","NA","30031","97186","NA","483","2","legacy","1024","2","48000","-16","experiment","HHSHH","1","odd","359988","34814","274663","NA","359485","4777","355639","NA","361084","4781","177473","NA","361187","361675","361080","361187","Flanker","119","66006","129","yes","1024"
"92.3076923077","92.3076923077","512.292307692","512.292307692","black","no","legacy","legacy","legacy","0","incongruent","uniform","1","undefined","1","h","129","0","0","0","129","0","129","0","129","0","0","0","129","129","129","129","09/09/18 21:06:58","600","The main experiment item","yes","F:\","no","mono","no","18","no","white","no","yes","768","legacy","49","79","F:/mc-subject-1.csv","legacy","Jazzy James","3.1.9","0","h","NA","h","s","NA","h","592","NA","30031","97186","NA","592","2","legacy","1024","2","48000","-16","experiment","SSHSS","1","odd","362190","34814","274663","NA","361687","4777","355639","NA","363286","4781","177473","NA","363390","363987","363282","363390","Flanker","120","66598","130","yes","1024"
"92.3664122137","92.3664122137","511.847328244","511.847328244","black","no","legacy","legacy","legacy","0","congruent","uniform","1","undefined","1","h","130","0","0","0","130","0","130","0","130","0","0","0","130","130","130","130","09/09/18 21:06:58","600","The main experiment item","yes","F:\","no","mono","no","18","no","white","no","yes","768","legacy","50","79","F:/mc-subject-1.csv","legacy","Jazzy James","3.1.9","0","h","NA","h","s","NA","h","454","NA","30031","97186","NA","454","2","legacy","1024","2","48000","-16","experiment","HHHHH","1","odd","363998","34814","274663","NA","361687","4777","355639","NA","365103","4781","177473","NA","365206","365665","365098","365206","Flanker","121","67052","131","yes","1024"
"92.4242424242","92.4242424242","511.204545455","511.204545455","black","no","legacy","legacy","legacy","0","congruent","uniform","1","undefined","1","h","131","0","0","0","131","0","131","0","131","0","0","0","131","131","131","131","09/09/18 21:06:58","600","The main experiment item","yes","F:\","no","mono","no","18","no","white","no","yes","768","legacy","51","79","F:/mc-subject-1.csv","legacy","Jazzy James","3.1.9","0","h","NA","h","s","NA","h","427","NA","30031","97186","NA","427","2","legacy","1024","2","48000","-16","experiment","HHHHH","1","odd","365679","34814","274663","NA","361687","4777","355639","NA","366775","4781","177473","NA","366879","367311","366771","366879","Flanker","122","67479","132","yes","1024"
"92.4812030075","92.4812030075","510.969924812","510.969924812","black","no","legacy","legacy","legacy","0","incongruent","uniform","1","undefined","1","h","132","0","0","0","132","0","132","0","132","0","0","0","132","132","132","132","09/09/18 21:06:58","600","The main experiment item","yes","F:\","no","mono","no","18","no","white","no","yes","768","legacy","52","79","F:/mc-subject-1.csv","legacy","Jazzy James","3.1.9","0","h","NA","h","s","NA","h","480","NA","30031","97186","NA","480","2","legacy","1024","2","48000","-16","experiment","SSHSS","1","odd","367324","34814","274663","NA","361687","4777","355639","NA","368423","4781","177473","NA","368526","369011","368419","368525","Flanker","123","67959","133","yes","1024"
"92.5373134328","92.5373134328","510.679104478","510.679104478","black","no","legacy","legacy","legacy","0","congruent","uniform","1","undefined","1","s","133","0","0","0","133","0","133","0","133","0","0","0","133","133","133","133","09/09/18 21:06:58","600","The main experiment item","yes","F:\","no","mono","no","18","no","white","no","yes","768","legacy","53","79","F:/mc-subject-1.csv","legacy","Jazzy James","3.1.9","0","s","NA","h","s","NA","s","472","NA","30031","97186","NA","472","2","legacy","1024","2","48000","-16","experiment","SSSSS","1","odd","369023","34814","274663","NA","361687","4777","355639","NA","370146","4781","177473","NA","370249","370726","370142","370249","Flanker","124","68431","134","yes","1024"
"92.5925925926","92.5925925926","511.02962963","511.02962963","black","no","legacy","legacy","legacy","0","congruent","uniform","1","undefined","1","h","134","0","0","0","134","0","134","0","134","0","0","0","134","134","134","134","09/09/18 21:06:58","600","The main experiment item","yes","F:\","no","mono","no","18","no","white","no","yes","768","legacy","54","79","F:/mc-subject-1.csv","legacy","Jazzy James","3.1.9","0","h","NA","h","s","NA","h","558","NA","30031","97186","NA","558","2","legacy","1024","2","48000","-16","experiment","HHHHH","1","odd","370739","34814","274663","NA","361687","4777","355639","NA","371847","4781","177473","NA","371950","372513","371843","371950","Flanker","125","68989","135","yes","1024"
"92.6470588235","92.6470588235","510.948529412","510.948529412","black","no","legacy","legacy","legacy","0","incongruent","uniform","1","undefined","1","h","135","0","0","0","135","0","135","0","135","0","0","0","135","135","135","135","09/09/18 21:06:58","600","The main experiment item","yes","F:\","no","mono","no","18","no","white","no","yes","768","legacy","55","79","F:/mc-subject-1.csv","legacy","Jazzy James","3.1.9","0","h","NA","h","s","NA","h","500","NA","30031","97186","NA","500","2","legacy","1024","2","48000","-16","experiment","SSHSS","1","odd","372524","34814","274663","NA","361687","4777","355639","NA","373651","4781","177473","NA","373755","374260","373646","373755","Flanker","126","69489","136","yes","1024"
"92.700729927","92.700729927","511.540145985","511.540145985","black","no","legacy","legacy","legacy","0","incongruent","uniform","1","undefined","1","s","136","0","0","0","136","0","136","0","136","0","0","0","136","136","136","136","09/09/18 21:06:58","600","The main experiment item","yes","F:\","no","mono","no","18","no","white","no","yes","768","legacy","56","79","F:/mc-subject-1.csv","legacy","Jazzy James","3.1.9","0","s","NA","h","s","NA","s","592","NA","30031","97186","NA","592","2","legacy","1024","2","48000","-16","experiment","HHSHH","1","odd","374273","34814","274663","NA","361687","4777","355639","NA","375374","4781","177473","NA","375477","376075","375370","375477","Flanker","127","70081","137","yes","1024"
"92.7536231884","92.7536231884","511.601449275","511.601449275","black","no","legacy","legacy","legacy","0","congruent","uniform","1","undefined","1","s","137","0","0","0","137","0","137","0","137","0","0","0","137","137","137","137","09/09/18 21:06:58","600","The main experiment item","yes","F:\","no","mono","no","18","no","white","no","yes","768","legacy","57","79","F:/mc-subject-1.csv","legacy","Jazzy James","3.1.9","0","s","NA","h","s","NA","s","520","NA","30031","97186","NA","520","2","legacy","1024","2","48000","-16","experiment","SSSSS","1","odd","376089","34814","274663","NA","361687","4777","355639","NA","377203","4781","177473","NA","377306","377832","377199","377306","Flanker","128","70601","138","yes","1024"
