"acc","accuracy","average_response_time","avg_rt","background","canvas_backend","clock_backend","color_backend","compensation","condition","coordinates","correct","correct_Instructions1","correct_Keyboard_Response","correct_response","count_Block1","count_Block2","count_Block3","count_Error_Feedback","count_Faster","count_Finish","count_Fixation","count_ISI","count_Instructions1","count_Instructions2","count_Insturctions3","count_Keyboard_Response","count_Logger","count_Sequence","count_Stimulus","count_experiment","datetime","deadline","description","disable_garbage_collection","experiment_file","experiment_path","font_bold","font_family","font_italic","font_size","font_underline","foreground","form_clicks","fullscreen","height","keyboard_backend","live_row","live_row_Block1","logfile","mouse_backend","opensesame_codename","opensesame_version","repeat_cycle","response","response_Finish","response_Instructions1","response_Instructions2","response_Insturctions3","response_Keyboard_Response","response_time","response_time_Finish","response_time_Instructions1","response_time_Instructions2","response_time_Insturctions3","response_time_Keyboard_Response","round_decimals","sampler_backend","sound_buf_size","sound_channels","sound_freq","sound_sample_size","start","stimulus","subject_nr","subject_parity","time_Block1","time_Block2","time_Block3","time_Error_Feedback","time_Faster","time_Finish","time_Fixation","time_ISI","time_Instructions1","time_Instructions2","time_Insturctions3","time_Keyboard_Response","time_Logger","time_Sequence","time_Stimulus","time_experiment","title","total_correct","total_response_time","total_responses","uniform_coordinates","width"
"0","0","464","464","black","legacy","legacy","legacy","0","Incongruent","uniform","0","undefined","0","h","0","0","0","0","0","0","0","0","0","0","0","0","0","0","0","0","Mon Sep  3 13:45:17 2018","1500","The main experiment item","yes","FlankerTask.osexp","/Users/emmaleemorgan/Desktop","no","mono","no","18","no","white","no","yes","768","legacy","0","0","/Users/emmaleemorgan/Desktop/EM-subject-1, f, 32.csv","legacy","Kafkaesque Koffka","3.2.5","0","s","NA","h","NA","NA","s","464","NA","564","NA","NA","464","2","legacy","1024","2","48000","-16","experiment","SSHSS","1","odd","3322","NA","NA","NA","NA","NA","3394","NA","2749","NA","NA","3506","3971","3384","3506","2732","Flanker Task","0","464","1","yes","1024"
"50","50","487","487","black","legacy","legacy","legacy","0","Congruent","uniform","1","undefined","1","h","0","0","0","1","1","0","1","1","0","0","0","1","1","1","1","0","Mon Sep  3 13:45:17 2018","1500","The main experiment item","yes","FlankerTask.osexp","/Users/emmaleemorgan/Desktop","no","mono","no","18","no","white","no","yes","768","legacy","1","1","/Users/emmaleemorgan/Desktop/EM-subject-1, f, 32.csv","legacy","Kafkaesque Koffka","3.2.5","0","h","NA","h","NA","NA","h","510","NA","564","NA","NA","510","2","legacy","1024","2","48000","-16","experiment","HHHHH","1","odd","3322","NA","NA","3985","NA","NA","5577","4495","2749","NA","NA","5690","6201","5566","5689","2732","Flanker Task","1","974","2","yes","1024"
"66.6666666667","66.6666666667","480","480","black","legacy","legacy","legacy","0","Congruent","uniform","1","undefined","1","s","0","0","0","2","2","0","2","2","0","0","0","2","2","2","2","0","Mon Sep  3 13:45:17 2018","1500","The main experiment item","yes","FlankerTask.osexp","/Users/emmaleemorgan/Desktop","no","mono","no","18","no","white","no","yes","768","legacy","2","2","/Users/emmaleemorgan/Desktop/EM-subject-1, f, 32.csv","legacy","Kafkaesque Koffka","3.2.5","0","s","NA","h","NA","NA","s","466","NA","564","NA","NA","466","2","legacy","1024","2","48000","-16","experiment","SSSSS","1","odd","3322","NA","NA","3985","NA","NA","7287","6216","2749","NA","NA","7402","7869","7277","7401","2732","Flanker Task","2","1440","3","yes","1024"
"75","75","483.5","483.5","black","legacy","legacy","legacy","0","Incongruent","uniform","1","undefined","1","s","0","0","0","3","3","0","3","3","0","0","0","3","3","3","3","0","Mon Sep  3 13:45:17 2018","1500","The main experiment item","yes","FlankerTask.osexp","/Users/emmaleemorgan/Desktop","no","mono","no","18","no","white","no","yes","768","legacy","3","3","/Users/emmaleemorgan/Desktop/EM-subject-1, f, 32.csv","legacy","Kafkaesque Koffka","3.2.5","0","s","NA","h","NA","NA","s","494","NA","564","NA","NA","494","2","legacy","1024","2","48000","-16","experiment","HHSHH","1","odd","3322","NA","NA","3985","NA","NA","8950","7881","2749","NA","NA","9060","9555","8939","9060","2732","Flanker Task","3","1934","4","yes","1024"
"80","80","487","487","black","legacy","legacy","legacy","0","Incongruent","uniform","1","undefined","1","s","0","0","0","4","4","0","4","4","0","0","0","4","4","4","4","0","Mon Sep  3 13:45:17 2018","1500","The main experiment item","yes","FlankerTask.osexp","/Users/emmaleemorgan/Desktop","no","mono","no","18","no","white","no","yes","768","legacy","4","4","/Users/emmaleemorgan/Desktop/EM-subject-1, f, 32.csv","legacy","Kafkaesque Koffka","3.2.5","0","s","NA","h","NA","NA","s","501","NA","564","NA","NA","501","2","legacy","1024","2","48000","-16","experiment","HHSHH","1","odd","3322","NA","NA","3985","NA","NA","10638","9567","2749","NA","NA","10750","11253","10628","10750","2732","Flanker Task","4","2435","5","yes","1024"
"83.3333333333","83.3333333333","485","485","black","legacy","legacy","legacy","0","Congruent","uniform","1","undefined","1","h","0","0","0","5","5","0","5","5","0","0","0","5","5","5","5","0","Mon Sep  3 13:45:17 2018","1500","The main experiment item","yes","FlankerTask.osexp","/Users/emmaleemorgan/Desktop","no","mono","no","18","no","white","no","yes","768","legacy","5","5","/Users/emmaleemorgan/Desktop/EM-subject-1, f, 32.csv","legacy","Kafkaesque Koffka","3.2.5","0","h","NA","h","NA","NA","h","475","NA","564","NA","NA","475","2","legacy","1024","2","48000","-16","experiment","HHHHH","1","odd","3322","NA","NA","3985","NA","NA","12338","11268","2749","NA","NA","12450","12926","12328","12450","2732","Flanker Task","5","2910","6","yes","1024"
"85.7142857143","85.7142857143","481.142857143","481.142857143","black","legacy","legacy","legacy","0","Incongruent","uniform","1","undefined","1","h","0","0","0","6","6","0","6","6","0","0","0","6","6","6","6","0","Mon Sep  3 13:45:17 2018","1500","The main experiment item","yes","FlankerTask.osexp","/Users/emmaleemorgan/Desktop","no","mono","no","18","no","white","no","yes","768","legacy","6","6","/Users/emmaleemorgan/Desktop/EM-subject-1, f, 32.csv","legacy","Kafkaesque Koffka","3.2.5","0","h","NA","h","NA","NA","h","458","NA","564","NA","NA","458","2","legacy","1024","2","48000","-16","experiment","SSHSS","1","odd","3322","NA","NA","3985","NA","NA","14010","12939","2749","NA","NA","14123","14582","14000","14122","2732","Flanker Task","6","3368","7","yes","1024"
"87.5","87.5","486.5","486.5","black","legacy","legacy","legacy","0","Congruent","uniform","1","undefined","1","h","0","0","0","7","7","0","7","7","0","0","0","7","7","7","7","0","Mon Sep  3 13:45:17 2018","1500","The main experiment item","yes","FlankerTask.osexp","/Users/emmaleemorgan/Desktop","no","mono","no","18","no","white","no","yes","768","legacy","7","7","/Users/emmaleemorgan/Desktop/EM-subject-1, f, 32.csv","legacy","Kafkaesque Koffka","3.2.5","0","h","NA","h","NA","NA","h","524","NA","564","NA","NA","524","2","legacy","1024","2","48000","-16","experiment","HHHHH","1","odd","3322","NA","NA","3985","NA","NA","15667","14594","2749","NA","NA","15781","16306","15657","15781","2732","Flanker Task","7","3892","8","yes","1024"
"88.8888888889","88.8888888889","478.777777778","478.777777778","black","legacy","legacy","legacy","0","Incongruent","uniform","1","undefined","1","s","0","0","0","8","8","0","8","8","0","0","0","8","8","8","8","0","Mon Sep  3 13:45:17 2018","1500","The main experiment item","yes","FlankerTask.osexp","/Users/emmaleemorgan/Desktop","no","mono","no","18","no","white","no","yes","768","legacy","8","8","/Users/emmaleemorgan/Desktop/EM-subject-1, f, 32.csv","legacy","Kafkaesque Koffka","3.2.5","0","s","NA","h","NA","NA","s","417","NA","564","NA","NA","417","2","legacy","1024","2","48000","-16","experiment","HHSHH","1","odd","3322","NA","NA","3985","NA","NA","17391","16319","2749","NA","NA","17502","17920","17381","17502","2732","Flanker Task","8","4309","9","yes","1024"
"90","90","473.6","473.6","black","legacy","legacy","legacy","0","Congruent","uniform","1","undefined","1","h","0","0","0","9","9","0","9","9","0","0","0","9","9","9","9","0","Mon Sep  3 13:45:17 2018","1500","The main experiment item","yes","FlankerTask.osexp","/Users/emmaleemorgan/Desktop","no","mono","no","18","no","white","no","yes","768","legacy","9","9","/Users/emmaleemorgan/Desktop/EM-subject-1, f, 32.csv","legacy","Kafkaesque Koffka","3.2.5","0","h","NA","h","NA","NA","h","427","NA","564","NA","NA","427","2","legacy","1024","2","48000","-16","experiment","HHHHH","1","odd","3322","NA","NA","3985","NA","NA","19004","17933","2749","NA","NA","19116","19545","18995","19116","2732","Flanker Task","9","4736","10","yes","1024"
"90.9090909091","90.9090909091","471.636363636","471.636363636","black","legacy","legacy","legacy","0","Congruent","uniform","1","undefined","1","h","0","0","0","10","10","0","10","10","0","0","0","10","10","10","10","0","Mon Sep  3 13:45:17 2018","1500","The main experiment item","yes","FlankerTask.osexp","/Users/emmaleemorgan/Desktop","no","mono","no","18","no","white","no","yes","768","legacy","10","10","/Users/emmaleemorgan/Desktop/EM-subject-1, f, 32.csv","legacy","Kafkaesque Koffka","3.2.5","0","h","NA","h","NA","NA","h","452","NA","564","NA","NA","452","2","legacy","1024","2","48000","-16","experiment","HHHHH","1","odd","3322","NA","NA","3985","NA","NA","20629","19558","2749","NA","NA","20743","21197","20619","20743","2732","Flanker Task","10","5188","11","yes","1024"
"91.6666666667","91.6666666667","465.833333333","465.833333333","black","legacy","legacy","legacy","0","Congruent","uniform","1","undefined","1","s","0","0","0","11","11","0","11","11","0","0","0","11","11","11","11","0","Mon Sep  3 13:45:17 2018","1500","The main experiment item","yes","FlankerTask.osexp","/Users/emmaleemorgan/Desktop","no","mono","no","18","no","white","no","yes","768","legacy","11","11","/Users/emmaleemorgan/Desktop/EM-subject-1, f, 32.csv","legacy","Kafkaesque Koffka","3.2.5","0","s","NA","h","NA","NA","s","402","NA","564","NA","NA","402","2","legacy","1024","2","48000","-16","experiment","SSSSS","1","odd","3322","NA","NA","3985","NA","NA","22278","21210","2749","NA","NA","22388","22792","22268","22388","2732","Flanker Task","11","5590","12","yes","1024"
"92.3076923077","92.3076923077","455.384615385","455.384615385","black","legacy","legacy","legacy","0","Congruent","uniform","1","undefined","1","h","0","0","0","12","12","0","12","12","0","0","0","12","12","12","12","0","Mon Sep  3 13:45:17 2018","1500","The main experiment item","yes","FlankerTask.osexp","/Users/emmaleemorgan/Desktop","no","mono","no","18","no","white","no","yes","768","legacy","12","12","/Users/emmaleemorgan/Desktop/EM-subject-1, f, 32.csv","legacy","Kafkaesque Koffka","3.2.5","0","h","NA","h","NA","NA","h","330","NA","564","NA","NA","330","2","legacy","1024","2","48000","-16","experiment","HHHHH","1","odd","3322","NA","NA","3985","NA","NA","23876","22804","2749","NA","NA","23989","24321","23866","23989","2732","Flanker Task","12","5920","13","yes","1024"
"85.7142857143","85.7142857143","453.214285714","453.214285714","black","legacy","legacy","legacy","0","Incongruent","uniform","0","undefined","0","s","0","0","0","13","13","0","13","13","0","0","0","13","13","13","13","0","Mon Sep  3 13:45:17 2018","1500","The main experiment item","yes","FlankerTask.osexp","/Users/emmaleemorgan/Desktop","no","mono","no","18","no","white","no","yes","768","legacy","13","13","/Users/emmaleemorgan/Desktop/EM-subject-1, f, 32.csv","legacy","Kafkaesque Koffka","3.2.5","0","h","NA","h","NA","NA","h","425","NA","564","NA","NA","425","2","legacy","1024","2","48000","-16","experiment","HHSHH","1","odd","3322","NA","NA","3985","NA","NA","25403","24333","2749","NA","NA","25514","25940","25393","25514","2732","Flanker Task","12","6345","14","yes","1024"
"86.6666666667","86.6666666667","456.733333333","456.733333333","black","legacy","legacy","legacy","0","Incongruent","uniform","1","undefined","1","h","0","0","0","14","14","0","14","14","0","0","0","14","14","14","14","0","Mon Sep  3 13:45:17 2018","1500","The main experiment item","yes","FlankerTask.osexp","/Users/emmaleemorgan/Desktop","no","mono","no","18","no","white","no","yes","768","legacy","14","14","/Users/emmaleemorgan/Desktop/EM-subject-1, f, 32.csv","legacy","Kafkaesque Koffka","3.2.5","0","h","NA","h","NA","NA","h","506","NA","564","NA","NA","506","2","legacy","1024","2","48000","-16","experiment","SSHSS","1","odd","3322","NA","NA","25953","NA","NA","27532","26465","2749","NA","NA","27644","28152","27522","27644","2732","Flanker Task","13","6851","15","yes","1024"
"87.5","87.5","460.75","460.75","black","legacy","legacy","legacy","0","Incongruent","uniform","1","undefined","1","h","0","0","0","15","15","0","15","15","0","0","0","15","15","15","15","0","Mon Sep  3 13:45:17 2018","1500","The main experiment item","yes","FlankerTask.osexp","/Users/emmaleemorgan/Desktop","no","mono","no","18","no","white","no","yes","768","legacy","15","15","/Users/emmaleemorgan/Desktop/EM-subject-1, f, 32.csv","legacy","Kafkaesque Koffka","3.2.5","0","h","NA","h","NA","NA","h","521","NA","564","NA","NA","521","2","legacy","1024","2","48000","-16","experiment","SSHSS","1","odd","3322","NA","NA","25953","NA","NA","29232","28165","2749","NA","NA","29343","29866","29222","29343","2732","Flanker Task","14","7372","16","yes","1024"
"88.2352941176","88.2352941176","464.470588235","464.470588235","black","legacy","legacy","legacy","0","Incongruent","uniform","1","undefined","1","s","0","0","0","16","16","0","16","16","0","0","0","16","16","16","16","0","Mon Sep  3 13:45:17 2018","1500","The main experiment item","yes","FlankerTask.osexp","/Users/emmaleemorgan/Desktop","no","mono","no","18","no","white","no","yes","768","legacy","16","16","/Users/emmaleemorgan/Desktop/EM-subject-1, f, 32.csv","legacy","Kafkaesque Koffka","3.2.5","0","s","NA","h","NA","NA","s","524","NA","564","NA","NA","524","2","legacy","1024","2","48000","-16","experiment","HHSHH","1","odd","3322","NA","NA","25953","NA","NA","30947","29879","2749","NA","NA","31058","31584","30937","31058","2732","Flanker Task","15","7896","17","yes","1024"
"88.8888888889","88.8888888889","463.166666667","463.166666667","black","legacy","legacy","legacy","0","Incongruent","uniform","1","undefined","1","h","0","0","0","17","17","0","17","17","0","0","0","17","17","17","17","0","Mon Sep  3 13:45:17 2018","1500","The main experiment item","yes","FlankerTask.osexp","/Users/emmaleemorgan/Desktop","no","mono","no","18","no","white","no","yes","768","legacy","17","17","/Users/emmaleemorgan/Desktop/EM-subject-1, f, 32.csv","legacy","Kafkaesque Koffka","3.2.5","0","h","NA","h","NA","NA","h","441","NA","564","NA","NA","441","2","legacy","1024","2","48000","-16","experiment","SSHSS","1","odd","3322","NA","NA","25953","NA","NA","32668","31597","2749","NA","NA","32780","33223","32658","32780","2732","Flanker Task","16","8337","18","yes","1024"
"89.4736842105","89.4736842105","464.315789474","464.315789474","black","legacy","legacy","legacy","0","Congruent","uniform","1","undefined","1","h","0","0","0","18","18","0","18","18","0","0","0","18","18","18","18","0","Mon Sep  3 13:45:17 2018","1500","The main experiment item","yes","FlankerTask.osexp","/Users/emmaleemorgan/Desktop","no","mono","no","18","no","white","no","yes","768","legacy","18","18","/Users/emmaleemorgan/Desktop/EM-subject-1, f, 32.csv","legacy","Kafkaesque Koffka","3.2.5","0","h","NA","h","NA","NA","h","485","NA","564","NA","NA","485","2","legacy","1024","2","48000","-16","experiment","HHHHH","1","odd","3322","NA","NA","25953","NA","NA","34307","33236","2749","NA","NA","34420","34907","34297","34420","2732","Flanker Task","17","8822","19","yes","1024"
"90","90","463.95","463.95","black","legacy","legacy","legacy","0","Congruent","uniform","1","undefined","1","h","0","0","0","19","19","0","19","19","0","0","0","19","19","19","19","0","Mon Sep  3 13:45:17 2018","1500","The main experiment item","yes","FlankerTask.osexp","/Users/emmaleemorgan/Desktop","no","mono","no","18","no","white","no","yes","768","legacy","19","19","/Users/emmaleemorgan/Desktop/EM-subject-1, f, 32.csv","legacy","Kafkaesque Koffka","3.2.5","0","h","NA","h","NA","NA","h","457","NA","564","NA","NA","457","2","legacy","1024","2","48000","-16","experiment","HHHHH","1","odd","3322","NA","NA","25953","NA","NA","35990","34922","2749","NA","NA","36101","36560","35979","36101","2732","Flanker Task","18","9279","20","yes","1024"
"90.4761904762","90.4761904762","462.476190476","462.476190476","black","legacy","legacy","legacy","0","Congruent","uniform","1","undefined","1","s","0","0","0","20","20","0","20","20","0","0","0","20","20","20","20","0","Mon Sep  3 13:45:17 2018","1500","The main experiment item","yes","FlankerTask.osexp","/Users/emmaleemorgan/Desktop","no","mono","no","18","no","white","no","yes","768","legacy","20","20","/Users/emmaleemorgan/Desktop/EM-subject-1, f, 32.csv","legacy","Kafkaesque Koffka","3.2.5","0","s","NA","h","NA","NA","s","433","NA","564","NA","NA","433","2","legacy","1024","2","48000","-16","experiment","SSSSS","1","odd","3322","NA","NA","25953","NA","NA","37640","36573","2749","NA","NA","37752","38187","37630","37752","2732","Flanker Task","19","9712","21","yes","1024"
"90.9090909091","90.9090909091","463.909090909","463.909090909","black","legacy","legacy","legacy","0","Incongruent","uniform","1","undefined","1","s","0","0","0","21","21","0","21","21","0","0","0","21","21","21","21","0","Mon Sep  3 13:45:17 2018","1500","The main experiment item","yes","FlankerTask.osexp","/Users/emmaleemorgan/Desktop","no","mono","no","18","no","white","no","yes","768","legacy","21","21","/Users/emmaleemorgan/Desktop/EM-subject-1, f, 32.csv","legacy","Kafkaesque Koffka","3.2.5","0","s","NA","h","NA","NA","s","494","NA","564","NA","NA","494","2","legacy","1024","2","48000","-16","experiment","HHSHH","1","odd","3322","NA","NA","25953","NA","NA","39267","38199","2749","NA","NA","39378","39874","39257","39378","2732","Flanker Task","20","10206","22","yes","1024"
"91.3043478261","91.3043478261","465.52173913","465.52173913","black","legacy","legacy","legacy","0","Congruent","uniform","1","undefined","1","s","0","0","0","22","22","0","22","22","0","0","0","22","22","22","22","0","Mon Sep  3 13:45:17 2018","1500","The main experiment item","yes","FlankerTask.osexp","/Users/emmaleemorgan/Desktop","no","mono","no","18","no","white","no","yes","768","legacy","22","22","/Users/emmaleemorgan/Desktop/EM-subject-1, f, 32.csv","legacy","Kafkaesque Koffka","3.2.5","0","s","NA","h","NA","NA","s","501","NA","564","NA","NA","501","2","legacy","1024","2","48000","-16","experiment","SSSSS","1","odd","3322","NA","NA","25953","NA","NA","40958","39887","2749","NA","NA","41071","41573","40948","41070","2732","Flanker Task","21","10707","23","yes","1024"
"91.6666666667","91.6666666667","463.791666667","463.791666667","black","legacy","legacy","legacy","0","Congruent","uniform","1","undefined","1","s","0","0","0","23","23","0","23","23","0","0","0","23","23","23","23","0","Mon Sep  3 13:45:17 2018","1500","The main experiment item","yes","FlankerTask.osexp","/Users/emmaleemorgan/Desktop","no","mono","no","18","no","white","no","yes","768","legacy","23","23","/Users/emmaleemorgan/Desktop/EM-subject-1, f, 32.csv","legacy","Kafkaesque Koffka","3.2.5","0","s","NA","h","NA","NA","s","424","NA","564","NA","NA","424","2","legacy","1024","2","48000","-16","experiment","SSSSS","1","odd","3322","NA","NA","25953","NA","NA","42657","41586","2749","NA","NA","42769","43195","42647","42769","2732","Flanker Task","22","11131","24","yes","1024"
"92","92","461.44","461.44","black","legacy","legacy","legacy","0","Congruent","uniform","1","undefined","1","s","0","0","0","24","24","0","24","24","0","0","0","24","24","24","24","0","Mon Sep  3 13:45:17 2018","1500","The main experiment item","yes","FlankerTask.osexp","/Users/emmaleemorgan/Desktop","no","mono","no","18","no","white","no","yes","768","legacy","24","24","/Users/emmaleemorgan/Desktop/EM-subject-1, f, 32.csv","legacy","Kafkaesque Koffka","3.2.5","0","s","NA","h","NA","NA","s","405","NA","564","NA","NA","405","2","legacy","1024","2","48000","-16","experiment","SSSSS","1","odd","3322","NA","NA","25953","NA","NA","44300","43208","2749","NA","NA","44412","44818","44286","44412","2732","Flanker Task","23","11536","25","yes","1024"
"92.3076923077","92.3076923077","456.576923077","456.576923077","black","legacy","legacy","legacy","0","Congruent","uniform","1","undefined","1","h","0","0","0","25","25","0","25","25","0","0","0","25","25","25","25","0","Mon Sep  3 13:45:17 2018","1500","The main experiment item","yes","FlankerTask.osexp","/Users/emmaleemorgan/Desktop","no","mono","no","18","no","white","no","yes","768","legacy","25","25","/Users/emmaleemorgan/Desktop/EM-subject-1, f, 32.csv","legacy","Kafkaesque Koffka","3.2.5","0","h","NA","h","NA","NA","h","335","NA","564","NA","NA","335","2","legacy","1024","2","48000","-16","experiment","HHHHH","1","odd","3322","NA","NA","25953","NA","NA","45903","44830","2749","NA","NA","46015","46352","45892","46014","2732","Flanker Task","24","11871","26","yes","1024"
"92.5925925926","92.5925925926","454.296296296","454.296296296","black","legacy","legacy","legacy","0","Congruent","uniform","1","undefined","1","s","0","0","0","26","26","0","26","26","0","0","0","26","26","26","26","0","Mon Sep  3 13:45:17 2018","1500","The main experiment item","yes","FlankerTask.osexp","/Users/emmaleemorgan/Desktop","no","mono","no","18","no","white","no","yes","768","legacy","26","26","/Users/emmaleemorgan/Desktop/EM-subject-1, f, 32.csv","legacy","Kafkaesque Koffka","3.2.5","0","s","NA","h","NA","NA","s","395","NA","564","NA","NA","395","2","legacy","1024","2","48000","-16","experiment","SSSSS","1","odd","3322","NA","NA","25953","NA","NA","47436","46365","2749","NA","NA","47548","47944","47426","47548","2732","Flanker Task","25","12266","27","yes","1024"
"92.8571428571","92.8571428571","454.964285714","454.964285714","black","legacy","legacy","legacy","0","Incongruent","uniform","1","undefined","1","s","0","0","0","27","27","0","27","27","0","0","0","27","27","27","27","0","Mon Sep  3 13:45:17 2018","1500","The main experiment item","yes","FlankerTask.osexp","/Users/emmaleemorgan/Desktop","no","mono","no","18","no","white","no","yes","768","legacy","27","27","/Users/emmaleemorgan/Desktop/EM-subject-1, f, 32.csv","legacy","Kafkaesque Koffka","3.2.5","0","s","NA","h","NA","NA","s","473","NA","564","NA","NA","473","2","legacy","1024","2","48000","-16","experiment","HHSHH","1","odd","3322","NA","NA","25953","NA","NA","49027","47957","2749","NA","NA","49140","49615","49018","49139","2732","Flanker Task","26","12739","28","yes","1024"
"93.1034482759","93.1034482759","454.827586207","454.827586207","black","legacy","legacy","legacy","0","Incongruent","uniform","1","undefined","1","s","0","0","0","28","28","0","28","28","0","0","0","28","28","28","28","0","Mon Sep  3 13:45:17 2018","1500","The main experiment item","yes","FlankerTask.osexp","/Users/emmaleemorgan/Desktop","no","mono","no","18","no","white","no","yes","768","legacy","28","28","/Users/emmaleemorgan/Desktop/EM-subject-1, f, 32.csv","legacy","Kafkaesque Koffka","3.2.5","0","s","NA","h","NA","NA","s","451","NA","564","NA","NA","451","2","legacy","1024","2","48000","-16","experiment","HHSHH","1","odd","3322","NA","NA","25953","NA","NA","50700","49628","2749","NA","NA","50812","51264","50690","50812","2732","Flanker Task","27","13190","29","yes","1024"
"93.3333333333","93.3333333333","452.966666667","452.966666667","black","legacy","legacy","legacy","0","Incongruent","uniform","1","undefined","1","s","0","0","0","29","29","0","29","29","0","0","0","29","29","29","29","0","Mon Sep  3 13:45:17 2018","1500","The main experiment item","yes","FlankerTask.osexp","/Users/emmaleemorgan/Desktop","no","mono","no","18","no","white","no","yes","768","legacy","29","29","/Users/emmaleemorgan/Desktop/EM-subject-1, f, 32.csv","legacy","Kafkaesque Koffka","3.2.5","0","s","NA","h","NA","NA","s","399","NA","564","NA","NA","399","2","legacy","1024","2","48000","-16","experiment","HHSHH","1","odd","3322","NA","NA","25953","NA","NA","52348","51277","2749","NA","NA","52460","52860","52338","52460","2732","Flanker Task","28","13589","30","yes","1024"
"93.5483870968","93.5483870968","453.258064516","453.258064516","black","legacy","legacy","legacy","0","Congruent","uniform","1","undefined","1","h","0","0","0","30","30","0","30","30","0","0","0","30","30","30","30","0","Mon Sep  3 13:45:17 2018","1500","The main experiment item","yes","FlankerTask.osexp","/Users/emmaleemorgan/Desktop","no","mono","no","18","no","white","no","yes","768","legacy","30","30","/Users/emmaleemorgan/Desktop/EM-subject-1, f, 32.csv","legacy","Kafkaesque Koffka","3.2.5","0","h","NA","h","NA","NA","h","462","NA","564","NA","NA","462","2","legacy","1024","2","48000","-16","experiment","HHHHH","1","odd","3322","NA","NA","25953","NA","NA","53948","52873","2749","NA","NA","54061","54525","53938","54061","2732","Flanker Task","29","14051","31","yes","1024"
"93.75","93.75","453.84375","453.84375","black","legacy","legacy","legacy","0","Congruent","uniform","1","undefined","1","h","0","0","0","31","31","0","31","31","0","0","0","31","31","31","31","0","Mon Sep  3 13:45:17 2018","1500","The main experiment item","yes","FlankerTask.osexp","/Users/emmaleemorgan/Desktop","no","mono","no","18","no","white","no","yes","768","legacy","31","31","/Users/emmaleemorgan/Desktop/EM-subject-1, f, 32.csv","legacy","Kafkaesque Koffka","3.2.5","0","h","NA","h","NA","NA","h","472","NA","564","NA","NA","472","2","legacy","1024","2","48000","-16","experiment","HHHHH","1","odd","3322","NA","NA","25953","NA","NA","55609","54538","2749","NA","NA","55725","56198","55599","55725","2732","Flanker Task","30","14523","32","yes","1024"
"90.9090909091","90.9090909091","452.909090909","452.909090909","black","legacy","legacy","legacy","0","Congruent","uniform","0","undefined","0","h","0","0","0","32","32","0","32","32","0","0","0","32","32","32","32","0","Mon Sep  3 13:45:17 2018","1500","The main experiment item","yes","FlankerTask.osexp","/Users/emmaleemorgan/Desktop","no","mono","no","18","no","white","no","yes","768","legacy","32","32","/Users/emmaleemorgan/Desktop/EM-subject-1, f, 32.csv","legacy","Kafkaesque Koffka","3.2.5","0","s","NA","h","NA","NA","s","423","NA","564","NA","NA","423","2","legacy","1024","2","48000","-16","experiment","HHHHH","1","odd","3322","NA","NA","25953","NA","NA","57285","56212","2749","NA","NA","57398","57822","57275","57398","2732","Flanker Task","30","14946","33","yes","1024"
"91.1764705882","91.1764705882","455.235294118","455.235294118","black","legacy","legacy","legacy","0","Incongruent","uniform","1","undefined","1","h","0","0","0","33","33","0","33","33","0","0","0","33","33","33","33","0","Mon Sep  3 13:45:17 2018","1500","The main experiment item","yes","FlankerTask.osexp","/Users/emmaleemorgan/Desktop","no","mono","no","18","no","white","no","yes","768","legacy","33","33","/Users/emmaleemorgan/Desktop/EM-subject-1, f, 32.csv","legacy","Kafkaesque Koffka","3.2.5","0","h","NA","h","NA","NA","h","532","NA","564","NA","NA","532","2","legacy","1024","2","48000","-16","experiment","SSHSS","1","odd","3322","NA","NA","57835","NA","NA","59417","58346","2749","NA","NA","59530","60064","59407","59530","2732","Flanker Task","31","15478","34","yes","1024"
"91.4285714286","91.4285714286","455.2","455.2","black","legacy","legacy","legacy","0","Incongruent","uniform","1","undefined","1","s","0","0","0","34","34","0","34","34","0","0","0","34","34","34","34","0","Mon Sep  3 13:45:17 2018","1500","The main experiment item","yes","FlankerTask.osexp","/Users/emmaleemorgan/Desktop","no","mono","no","18","no","white","no","yes","768","legacy","34","34","/Users/emmaleemorgan/Desktop/EM-subject-1, f, 32.csv","legacy","Kafkaesque Koffka","3.2.5","0","s","NA","h","NA","NA","s","454","NA","564","NA","NA","454","2","legacy","1024","2","48000","-16","experiment","HHSHH","1","odd","3322","NA","NA","57835","NA","NA","61150","60078","2749","NA","NA","61262","61717","61140","61262","2732","Flanker Task","32","15932","35","yes","1024"
"91.6666666667","91.6666666667","455.666666667","455.666666667","black","legacy","legacy","legacy","0","Congruent","uniform","1","undefined","1","s","0","0","0","35","35","0","35","35","0","0","0","35","35","35","35","0","Mon Sep  3 13:45:17 2018","1500","The main experiment item","yes","FlankerTask.osexp","/Users/emmaleemorgan/Desktop","no","mono","no","18","no","white","no","yes","768","legacy","35","35","/Users/emmaleemorgan/Desktop/EM-subject-1, f, 32.csv","legacy","Kafkaesque Koffka","3.2.5","0","s","NA","h","NA","NA","s","472","NA","564","NA","NA","472","2","legacy","1024","2","48000","-16","experiment","SSSSS","1","odd","3322","NA","NA","57835","NA","NA","62799","61730","2749","NA","NA","62910","63383","62789","62910","2732","Flanker Task","33","16404","36","yes","1024"
"91.8918918919","91.8918918919","459.378378378","459.378378378","black","legacy","legacy","legacy","0","Congruent","uniform","1","undefined","1","s","0","0","0","36","36","0","36","36","0","0","0","36","36","36","36","0","Mon Sep  3 13:45:17 2018","1500","The main experiment item","yes","FlankerTask.osexp","/Users/emmaleemorgan/Desktop","no","mono","no","18","no","white","no","yes","768","legacy","36","36","/Users/emmaleemorgan/Desktop/EM-subject-1, f, 32.csv","legacy","Kafkaesque Koffka","3.2.5","0","s","NA","h","NA","NA","s","593","NA","564","NA","NA","593","2","legacy","1024","2","48000","-16","experiment","SSSSS","1","odd","3322","NA","NA","57835","NA","NA","64467","63396","2749","NA","NA","64580","65174","64457","64580","2732","Flanker Task","34","16997","37","yes","1024"
"92.1052631579","92.1052631579","463.289473684","463.289473684","black","legacy","legacy","legacy","0","Incongruent","uniform","1","undefined","1","h","0","0","0","37","37","0","37","37","0","0","0","37","37","37","37","0","Mon Sep  3 13:45:17 2018","1500","The main experiment item","yes","FlankerTask.osexp","/Users/emmaleemorgan/Desktop","no","mono","no","18","no","white","no","yes","768","legacy","37","37","/Users/emmaleemorgan/Desktop/EM-subject-1, f, 32.csv","legacy","Kafkaesque Koffka","3.2.5","0","h","NA","h","NA","NA","h","608","NA","564","NA","NA","608","2","legacy","1024","2","48000","-16","experiment","SSHSS","1","odd","3322","NA","NA","57835","NA","NA","66260","65188","2749","NA","NA","66372","66981","66250","66372","2732","Flanker Task","35","17605","38","yes","1024"
"92.3076923077","92.3076923077","467.692307692","467.692307692","black","legacy","legacy","legacy","0","Incongruent","uniform","1","undefined","1","s","0","0","0","38","38","0","38","38","0","0","0","38","38","38","38","0","Mon Sep  3 13:45:17 2018","1500","The main experiment item","yes","FlankerTask.osexp","/Users/emmaleemorgan/Desktop","no","mono","no","18","no","white","no","yes","768","legacy","38","38","/Users/emmaleemorgan/Desktop/EM-subject-1, f, 32.csv","legacy","Kafkaesque Koffka","3.2.5","0","s","NA","h","NA","NA","s","635","NA","564","NA","NA","635","2","legacy","1024","2","48000","-16","experiment","HHSHH","1","odd","3322","NA","NA","57835","NA","NA","68065","66994","2749","NA","NA","68177","68813","68054","68177","2732","Flanker Task","36","18240","39","yes","1024"
"92.5","92.5","470.725","470.725","black","legacy","legacy","legacy","0","Incongruent","uniform","1","undefined","1","s","0","0","0","39","39","0","39","39","0","0","0","39","39","39","39","0","Mon Sep  3 13:45:17 2018","1500","The main experiment item","yes","FlankerTask.osexp","/Users/emmaleemorgan/Desktop","no","mono","no","18","no","white","no","yes","768","legacy","39","39","/Users/emmaleemorgan/Desktop/EM-subject-1, f, 32.csv","legacy","Kafkaesque Koffka","3.2.5","0","s","NA","h","NA","NA","s","589","NA","564","NA","NA","589","2","legacy","1024","2","48000","-16","experiment","HHSHH","1","odd","3322","NA","NA","57835","NA","NA","69899","68826","2749","NA","NA","70012","70602","69889","70012","2732","Flanker Task","37","18829","40","yes","1024"
"92.6829268293","92.6829268293","471.609756098","471.609756098","black","legacy","legacy","legacy","0","Incongruent","uniform","1","undefined","1","h","0","0","0","40","40","0","40","40","0","0","0","40","40","40","40","0","Mon Sep  3 13:45:17 2018","1500","The main experiment item","yes","FlankerTask.osexp","/Users/emmaleemorgan/Desktop","no","mono","no","18","no","white","no","yes","768","legacy","40","40","/Users/emmaleemorgan/Desktop/EM-subject-1, f, 32.csv","legacy","Kafkaesque Koffka","3.2.5","0","h","NA","h","NA","NA","h","507","NA","564","NA","NA","507","2","legacy","1024","2","48000","-16","experiment","SSHSS","1","odd","3322","NA","NA","57835","NA","NA","71686","70615","2749","NA","NA","71801","72309","71676","71800","2732","Flanker Task","38","19336","41","yes","1024"
"92.8571428571","92.8571428571","472.5","472.5","black","legacy","legacy","legacy","0","Congruent","uniform","1","undefined","1","h","0","0","0","41","41","0","41","41","0","0","0","41","41","41","41","0","Mon Sep  3 13:45:17 2018","1500","The main experiment item","yes","FlankerTask.osexp","/Users/emmaleemorgan/Desktop","no","mono","no","18","no","white","no","yes","768","legacy","41","41","/Users/emmaleemorgan/Desktop/EM-subject-1, f, 32.csv","legacy","Kafkaesque Koffka","3.2.5","0","h","NA","h","NA","NA","h","509","NA","564","NA","NA","509","2","legacy","1024","2","48000","-16","experiment","HHHHH","1","odd","3322","NA","NA","57835","NA","NA","73389","72321","2749","NA","NA","73501","74012","73380","73501","2732","Flanker Task","39","19845","42","yes","1024"
"93.023255814","93.023255814","472.627906977","472.627906977","black","legacy","legacy","legacy","0","Incongruent","uniform","1","undefined","1","s","0","0","0","42","42","0","42","42","0","0","0","42","42","42","42","0","Mon Sep  3 13:45:17 2018","1500","The main experiment item","yes","FlankerTask.osexp","/Users/emmaleemorgan/Desktop","no","mono","no","18","no","white","no","yes","768","legacy","42","42","/Users/emmaleemorgan/Desktop/EM-subject-1, f, 32.csv","legacy","Kafkaesque Koffka","3.2.5","0","s","NA","h","NA","NA","s","478","NA","564","NA","NA","478","2","legacy","1024","2","48000","-16","experiment","HHSHH","1","odd","3322","NA","NA","57835","NA","NA","75095","74026","2749","NA","NA","75207","75686","75085","75207","2732","Flanker Task","40","20323","43","yes","1024"
"93.1818181818","93.1818181818","473.681818182","473.681818182","black","legacy","legacy","legacy","0","Congruent","uniform","1","undefined","1","s","0","0","0","43","43","0","43","43","0","0","0","43","43","43","43","0","Mon Sep  3 13:45:17 2018","1500","The main experiment item","yes","FlankerTask.osexp","/Users/emmaleemorgan/Desktop","no","mono","no","18","no","white","no","yes","768","legacy","43","43","/Users/emmaleemorgan/Desktop/EM-subject-1, f, 32.csv","legacy","Kafkaesque Koffka","3.2.5","0","s","NA","h","NA","NA","s","519","NA","564","NA","NA","519","2","legacy","1024","2","48000","-16","experiment","SSSSS","1","odd","3322","NA","NA","57835","NA","NA","76768","75699","2749","NA","NA","76882","77402","76757","76882","2732","Flanker Task","41","20842","44","yes","1024"
"93.3333333333","93.3333333333","474.755555556","474.755555556","black","legacy","legacy","legacy","0","Congruent","uniform","1","undefined","1","h","0","0","0","44","44","0","44","44","0","0","0","44","44","44","44","0","Mon Sep  3 13:45:17 2018","1500","The main experiment item","yes","FlankerTask.osexp","/Users/emmaleemorgan/Desktop","no","mono","no","18","no","white","no","yes","768","legacy","44","44","/Users/emmaleemorgan/Desktop/EM-subject-1, f, 32.csv","legacy","Kafkaesque Koffka","3.2.5","0","h","NA","h","NA","NA","h","522","NA","564","NA","NA","522","2","legacy","1024","2","48000","-16","experiment","HHHHH","1","odd","3322","NA","NA","57835","NA","NA","78486","77415","2749","NA","NA","78598","79122","78475","78597","2732","Flanker Task","42","21364","45","yes","1024"
"93.4782608696","93.4782608696","474","474","black","legacy","legacy","legacy","0","Incongruent","uniform","1","undefined","1","s","0","0","0","45","45","0","45","45","0","0","0","45","45","45","45","0","Mon Sep  3 13:45:17 2018","1500","The main experiment item","yes","FlankerTask.osexp","/Users/emmaleemorgan/Desktop","no","mono","no","18","no","white","no","yes","768","legacy","45","45","/Users/emmaleemorgan/Desktop/EM-subject-1, f, 32.csv","legacy","Kafkaesque Koffka","3.2.5","0","s","NA","h","NA","NA","s","440","NA","564","NA","NA","440","2","legacy","1024","2","48000","-16","experiment","HHSHH","1","odd","3322","NA","NA","57835","NA","NA","80203","79134","2749","NA","NA","80315","80757","80193","80315","2732","Flanker Task","43","21804","46","yes","1024"
"93.6170212766","93.6170212766","473.829787234","473.829787234","black","legacy","legacy","legacy","0","Incongruent","uniform","1","undefined","1","h","0","0","0","46","46","0","46","46","0","0","0","46","46","46","46","0","Mon Sep  3 13:45:17 2018","1500","The main experiment item","yes","FlankerTask.osexp","/Users/emmaleemorgan/Desktop","no","mono","no","18","no","white","no","yes","768","legacy","46","46","/Users/emmaleemorgan/Desktop/EM-subject-1, f, 32.csv","legacy","Kafkaesque Koffka","3.2.5","0","h","NA","h","NA","NA","h","466","NA","564","NA","NA","466","2","legacy","1024","2","48000","-16","experiment","SSHSS","1","odd","3322","NA","NA","57835","NA","NA","81836","80770","2749","NA","NA","81949","82417","81826","81949","2732","Flanker Task","44","22270","47","yes","1024"
"91.6666666667","91.6666666667","469.833333333","469.833333333","black","legacy","legacy","legacy","0","Incongruent","uniform","0","undefined","0","h","0","0","0","47","47","0","47","47","0","0","0","47","47","47","47","0","Mon Sep  3 13:45:17 2018","1500","The main experiment item","yes","FlankerTask.osexp","/Users/emmaleemorgan/Desktop","no","mono","no","18","no","white","no","yes","768","legacy","47","47","/Users/emmaleemorgan/Desktop/EM-subject-1, f, 32.csv","legacy","Kafkaesque Koffka","3.2.5","0","s","NA","h","NA","NA","s","282","NA","564","NA","NA","282","2","legacy","1024","2","48000","-16","experiment","SSHSS","1","odd","3322","NA","NA","57835","NA","NA","83500","82428","2749","NA","NA","83614","83897","83490","83614","2732","Flanker Task","44","22552","48","yes","1024"
"91.8367346939","91.8367346939","471.653061224","471.653061224","black","legacy","legacy","legacy","0","Incongruent","uniform","1","undefined","1","s","0","0","0","48","48","0","48","48","0","0","0","48","48","48","48","0","Mon Sep  3 13:45:17 2018","1500","The main experiment item","yes","FlankerTask.osexp","/Users/emmaleemorgan/Desktop","no","mono","no","18","no","white","no","yes","768","legacy","48","48","/Users/emmaleemorgan/Desktop/EM-subject-1, f, 32.csv","legacy","Kafkaesque Koffka","3.2.5","0","s","NA","h","NA","NA","s","559","NA","564","NA","NA","559","2","legacy","1024","2","48000","-16","experiment","HHSHH","1","odd","3322","NA","NA","83911","NA","NA","85494","84423","2749","NA","NA","85606","86167","85484","85606","2732","Flanker Task","45","23111","49","yes","1024"
"92","92","474.94","474.94","black","legacy","legacy","legacy","0","Incongruent","uniform","1","undefined","1","s","0","0","0","49","49","0","49","49","0","0","0","49","49","49","49","0","Mon Sep  3 13:45:17 2018","1500","The main experiment item","yes","FlankerTask.osexp","/Users/emmaleemorgan/Desktop","no","mono","no","18","no","white","no","yes","768","legacy","49","49","/Users/emmaleemorgan/Desktop/EM-subject-1, f, 32.csv","legacy","Kafkaesque Koffka","3.2.5","0","s","NA","h","NA","NA","s","636","NA","564","NA","NA","636","2","legacy","1024","2","48000","-16","experiment","HHSHH","1","odd","3322","NA","NA","83911","NA","NA","87254","86180","2749","NA","NA","87369","88007","87244","87369","2732","Flanker Task","46","23747","50","yes","1024"
"92.1568627451","92.1568627451","476.37254902","476.37254902","black","legacy","legacy","legacy","0","Congruent","uniform","1","undefined","1","s","0","0","0","50","50","0","50","50","0","0","0","50","50","50","50","0","Mon Sep  3 13:45:17 2018","1500","The main experiment item","yes","FlankerTask.osexp","/Users/emmaleemorgan/Desktop","no","mono","no","18","no","white","no","yes","768","legacy","50","50","/Users/emmaleemorgan/Desktop/EM-subject-1, f, 32.csv","legacy","Kafkaesque Koffka","3.2.5","0","s","NA","h","NA","NA","s","548","NA","564","NA","NA","548","2","legacy","1024","2","48000","-16","experiment","SSSSS","1","odd","3322","NA","NA","83911","NA","NA","89090","88019","2749","NA","NA","89202","89752","89081","89202","2732","Flanker Task","47","24295","51","yes","1024"
"92.3076923077","92.3076923077","474.596153846","474.596153846","black","legacy","legacy","legacy","0","Congruent","uniform","1","undefined","1","s","0","0","0","51","51","0","51","51","0","0","0","51","51","51","51","0","Mon Sep  3 13:45:17 2018","1500","The main experiment item","yes","FlankerTask.osexp","/Users/emmaleemorgan/Desktop","no","mono","no","18","no","white","no","yes","768","legacy","51","51","/Users/emmaleemorgan/Desktop/EM-subject-1, f, 32.csv","legacy","Kafkaesque Koffka","3.2.5","0","s","NA","h","NA","NA","s","384","NA","564","NA","NA","384","2","legacy","1024","2","48000","-16","experiment","SSSSS","1","odd","3322","NA","NA","83911","NA","NA","90833","89765","2749","NA","NA","90945","91331","90823","90945","2732","Flanker Task","48","24679","52","yes","1024"
"92.4528301887","92.4528301887","473.679245283","473.679245283","black","legacy","legacy","legacy","0","Congruent","uniform","1","undefined","1","s","0","0","0","52","52","0","52","52","0","0","0","52","52","52","52","0","Mon Sep  3 13:45:17 2018","1500","The main experiment item","yes","FlankerTask.osexp","/Users/emmaleemorgan/Desktop","no","mono","no","18","no","white","no","yes","768","legacy","52","52","/Users/emmaleemorgan/Desktop/EM-subject-1, f, 32.csv","legacy","Kafkaesque Koffka","3.2.5","0","s","NA","h","NA","NA","s","426","NA","564","NA","NA","426","2","legacy","1024","2","48000","-16","experiment","SSSSS","1","odd","3322","NA","NA","83911","NA","NA","92414","91343","2749","NA","NA","92526","92954","92404","92526","2732","Flanker Task","49","25105","53","yes","1024"
"92.5925925926","92.5925925926","471.592592593","471.592592593","black","legacy","legacy","legacy","0","Incongruent","uniform","1","undefined","1","h","0","0","0","53","53","0","53","53","0","0","0","53","53","53","53","0","Mon Sep  3 13:45:17 2018","1500","The main experiment item","yes","FlankerTask.osexp","/Users/emmaleemorgan/Desktop","no","mono","no","18","no","white","no","yes","768","legacy","53","53","/Users/emmaleemorgan/Desktop/EM-subject-1, f, 32.csv","legacy","Kafkaesque Koffka","3.2.5","0","h","NA","h","NA","NA","h","361","NA","564","NA","NA","361","2","legacy","1024","2","48000","-16","experiment","SSHSS","1","odd","3322","NA","NA","83911","NA","NA","94038","92967","2749","NA","NA","94151","94514","94028","94151","2732","Flanker Task","50","25466","54","yes","1024"
"92.7272727273","92.7272727273","474.8","474.8","black","legacy","legacy","legacy","0","Congruent","uniform","1","undefined","1","h","0","0","0","54","54","0","54","54","0","0","0","54","54","54","54","0","Mon Sep  3 13:45:17 2018","1500","The main experiment item","yes","FlankerTask.osexp","/Users/emmaleemorgan/Desktop","no","mono","no","18","no","white","no","yes","768","legacy","54","54","/Users/emmaleemorgan/Desktop/EM-subject-1, f, 32.csv","legacy","Kafkaesque Koffka","3.2.5","0","h","NA","h","NA","NA","h","648","NA","564","NA","NA","648","2","legacy","1024","2","48000","-16","experiment","HHHHH","1","odd","3322","NA","NA","83911","NA","NA","95600","94528","2749","NA","NA","95713","96363","95590","95713","2732","Flanker Task","51","26114","55","yes","1024"
"92.8571428571","92.8571428571","474.607142857","474.607142857","black","legacy","legacy","legacy","0","Incongruent","uniform","1","undefined","1","s","0","0","0","55","55","0","55","55","0","0","0","55","55","55","55","0","Mon Sep  3 13:45:17 2018","1500","The main experiment item","yes","FlankerTask.osexp","/Users/emmaleemorgan/Desktop","no","mono","no","18","no","white","no","yes","768","legacy","55","55","/Users/emmaleemorgan/Desktop/EM-subject-1, f, 32.csv","legacy","Kafkaesque Koffka","3.2.5","0","s","NA","h","NA","NA","s","464","NA","564","NA","NA","464","2","legacy","1024","2","48000","-16","experiment","HHSHH","1","odd","3322","NA","NA","83911","NA","NA","97449","96376","2749","NA","NA","97564","98030","97438","97563","2732","Flanker Task","52","26578","56","yes","1024"
"92.9824561404","92.9824561404","474.771929825","474.771929825","black","legacy","legacy","legacy","0","Incongruent","uniform","1","undefined","1","h","0","0","0","56","56","0","56","56","0","0","0","56","56","56","56","0","Mon Sep  3 13:45:17 2018","1500","The main experiment item","yes","FlankerTask.osexp","/Users/emmaleemorgan/Desktop","no","mono","no","18","no","white","no","yes","768","legacy","56","56","/Users/emmaleemorgan/Desktop/EM-subject-1, f, 32.csv","legacy","Kafkaesque Koffka","3.2.5","0","h","NA","h","NA","NA","h","484","NA","564","NA","NA","484","2","legacy","1024","2","48000","-16","experiment","SSHSS","1","odd","3322","NA","NA","83911","NA","NA","99113","98042","2749","NA","NA","99226","99712","99103","99226","2732","Flanker Task","53","27062","57","yes","1024"
"93.1034482759","93.1034482759","475.293103448","475.293103448","black","legacy","legacy","legacy","0","Incongruent","uniform","1","undefined","1","s","0","0","0","57","57","0","57","57","0","0","0","57","57","57","57","0","Mon Sep  3 13:45:17 2018","1500","The main experiment item","yes","FlankerTask.osexp","/Users/emmaleemorgan/Desktop","no","mono","no","18","no","white","no","yes","768","legacy","57","57","/Users/emmaleemorgan/Desktop/EM-subject-1, f, 32.csv","legacy","Kafkaesque Koffka","3.2.5","0","s","NA","h","NA","NA","s","505","NA","564","NA","NA","505","2","legacy","1024","2","48000","-16","experiment","HHSHH","1","odd","3322","NA","NA","83911","NA","NA","100797","99725","2749","NA","NA","100909","101416","100787","100909","2732","Flanker Task","54","27567","58","yes","1024"
"93.2203389831","93.2203389831","475.186440678","475.186440678","black","legacy","legacy","legacy","0","Congruent","uniform","1","undefined","1","s","0","0","0","58","58","0","58","58","0","0","0","58","58","58","58","0","Mon Sep  3 13:45:17 2018","1500","The main experiment item","yes","FlankerTask.osexp","/Users/emmaleemorgan/Desktop","no","mono","no","18","no","white","no","yes","768","legacy","58","58","/Users/emmaleemorgan/Desktop/EM-subject-1, f, 32.csv","legacy","Kafkaesque Koffka","3.2.5","0","s","NA","h","NA","NA","s","469","NA","564","NA","NA","469","2","legacy","1024","2","48000","-16","experiment","SSSSS","1","odd","3322","NA","NA","83911","NA","NA","102500","101429","2749","NA","NA","102614","103085","102490","102614","2732","Flanker Task","55","28036","59","yes","1024"
"93.3333333333","93.3333333333","474.7","474.7","black","legacy","legacy","legacy","0","Incongruent","uniform","1","undefined","1","h","0","0","0","59","59","0","59","59","0","0","0","59","59","59","59","0","Mon Sep  3 13:45:17 2018","1500","The main experiment item","yes","FlankerTask.osexp","/Users/emmaleemorgan/Desktop","no","mono","no","18","no","white","no","yes","768","legacy","59","59","/Users/emmaleemorgan/Desktop/EM-subject-1, f, 32.csv","legacy","Kafkaesque Koffka","3.2.5","0","h","NA","h","NA","NA","h","446","NA","564","NA","NA","446","2","legacy","1024","2","48000","-16","experiment","SSHSS","1","odd","3322","NA","NA","83911","NA","NA","104169","103099","2749","NA","NA","104282","104730","104158","104282","2732","Flanker Task","56","28482","60","yes","1024"
"93.4426229508","93.4426229508","474.196721311","474.196721311","black","legacy","legacy","legacy","0","Congruent","uniform","1","undefined","1","s","0","0","0","60","60","0","60","60","0","0","0","60","60","60","60","0","Mon Sep  3 13:45:17 2018","1500","The main experiment item","yes","FlankerTask.osexp","/Users/emmaleemorgan/Desktop","no","mono","no","18","no","white","no","yes","768","legacy","60","60","/Users/emmaleemorgan/Desktop/EM-subject-1, f, 32.csv","legacy","Kafkaesque Koffka","3.2.5","0","s","NA","h","NA","NA","s","444","NA","564","NA","NA","444","2","legacy","1024","2","48000","-16","experiment","SSSSS","1","odd","3322","NA","NA","83911","NA","NA","105815","104743","2749","NA","NA","105928","106374","105805","105928","2732","Flanker Task","57","28926","61","yes","1024"
"93.5483870968","93.5483870968","473.290322581","473.290322581","black","legacy","legacy","legacy","0","Congruent","uniform","1","undefined","1","h","0","0","0","61","61","0","61","61","0","0","0","61","61","61","61","0","Mon Sep  3 13:45:17 2018","1500","The main experiment item","yes","FlankerTask.osexp","/Users/emmaleemorgan/Desktop","no","mono","no","18","no","white","no","yes","768","legacy","61","61","/Users/emmaleemorgan/Desktop/EM-subject-1, f, 32.csv","legacy","Kafkaesque Koffka","3.2.5","0","h","NA","h","NA","NA","h","418","NA","564","NA","NA","418","2","legacy","1024","2","48000","-16","experiment","HHHHH","1","odd","3322","NA","NA","83911","NA","NA","107458","106386","2749","NA","NA","107570","107990","107448","107570","2732","Flanker Task","58","29344","62","yes","1024"
"93.6507936508","93.6507936508","476.873015873","476.873015873","black","legacy","legacy","legacy","0","Incongruent","uniform","1","undefined","1","h","0","0","0","62","62","0","62","62","0","0","0","62","62","62","62","0","Mon Sep  3 13:45:17 2018","1500","The main experiment item","yes","FlankerTask.osexp","/Users/emmaleemorgan/Desktop","no","mono","no","18","no","white","no","yes","768","legacy","62","62","/Users/emmaleemorgan/Desktop/EM-subject-1, f, 32.csv","legacy","Kafkaesque Koffka","3.2.5","0","h","NA","h","NA","NA","h","699","NA","564","NA","NA","699","2","legacy","1024","2","48000","-16","experiment","SSHSS","1","odd","3322","NA","NA","83911","NA","NA","109075","108002","2749","NA","NA","109187","109888","109065","109187","2732","Flanker Task","59","30043","63","yes","1024"
"93.75","93.75","476.90625","476.90625","black","legacy","legacy","legacy","0","Congruent","uniform","1","undefined","1","s","0","0","0","63","63","0","63","63","0","0","0","63","63","63","63","0","Mon Sep  3 13:45:17 2018","1500","The main experiment item","yes","FlankerTask.osexp","/Users/emmaleemorgan/Desktop","no","mono","no","18","no","white","no","yes","768","legacy","63","63","/Users/emmaleemorgan/Desktop/EM-subject-1, f, 32.csv","legacy","Kafkaesque Koffka","3.2.5","0","s","NA","h","NA","NA","s","479","NA","564","NA","NA","479","2","legacy","1024","2","48000","-16","experiment","SSSSS","1","odd","3322","NA","NA","83911","NA","NA","110973","109901","2749","NA","NA","111085","111566","110963","111085","2732","Flanker Task","60","30522","64","yes","1024"
"93.8461538462","93.8461538462","476.846153846","476.846153846","black","legacy","legacy","legacy","0","Congruent","uniform","1","undefined","1","h","0","0","0","64","64","0","64","64","0","0","0","64","64","64","64","0","Mon Sep  3 13:45:17 2018","1500","The main experiment item","yes","FlankerTask.osexp","/Users/emmaleemorgan/Desktop","no","mono","no","18","no","white","no","yes","768","legacy","64","64","/Users/emmaleemorgan/Desktop/EM-subject-1, f, 32.csv","legacy","Kafkaesque Koffka","3.2.5","0","h","NA","h","NA","NA","h","473","NA","564","NA","NA","473","2","legacy","1024","2","48000","-16","experiment","HHHHH","1","odd","3322","NA","NA","83911","NA","NA","112649","111579","2749","NA","NA","112761","113236","112639","112761","2732","Flanker Task","61","30995","65","yes","1024"
"93.9393939394","93.9393939394","475.621212121","475.621212121","black","legacy","legacy","legacy","0","Congruent","uniform","1","undefined","1","s","0","0","0","65","65","0","65","65","0","0","0","65","65","65","65","0","Mon Sep  3 13:45:17 2018","1500","The main experiment item","yes","FlankerTask.osexp","/Users/emmaleemorgan/Desktop","no","mono","no","18","no","white","no","yes","768","legacy","65","65","/Users/emmaleemorgan/Desktop/EM-subject-1, f, 32.csv","legacy","Kafkaesque Koffka","3.2.5","0","s","NA","h","NA","NA","s","396","NA","564","NA","NA","396","2","legacy","1024","2","48000","-16","experiment","SSSSS","1","odd","3322","NA","NA","83911","NA","NA","114320","113248","2749","NA","NA","114433","114831","114309","114433","2732","Flanker Task","62","31391","66","yes","1024"
"94.0298507463","94.0298507463","475.895522388","475.895522388","black","legacy","legacy","legacy","0","Incongruent","uniform","1","undefined","1","h","0","0","0","66","66","0","66","66","0","0","0","66","66","66","66","0","Mon Sep  3 13:45:17 2018","1500","The main experiment item","yes","FlankerTask.osexp","/Users/emmaleemorgan/Desktop","no","mono","no","18","no","white","no","yes","768","legacy","66","66","/Users/emmaleemorgan/Desktop/EM-subject-1, f, 32.csv","legacy","Kafkaesque Koffka","3.2.5","0","h","NA","h","NA","NA","h","494","NA","564","NA","NA","494","2","legacy","1024","2","48000","-16","experiment","SSHSS","1","odd","3322","NA","NA","83911","NA","NA","115915","114843","2749","NA","NA","116027","116523","115905","116027","2732","Flanker Task","63","31885","67","yes","1024"
"94.1176470588","94.1176470588","476.088235294","476.088235294","black","legacy","legacy","legacy","0","Incongruent","uniform","1","undefined","1","h","0","0","0","67","67","0","67","67","0","0","0","67","67","67","67","0","Mon Sep  3 13:45:17 2018","1500","The main experiment item","yes","FlankerTask.osexp","/Users/emmaleemorgan/Desktop","no","mono","no","18","no","white","no","yes","768","legacy","67","67","/Users/emmaleemorgan/Desktop/EM-subject-1, f, 32.csv","legacy","Kafkaesque Koffka","3.2.5","0","h","NA","h","NA","NA","h","489","NA","564","NA","NA","489","2","legacy","1024","2","48000","-16","experiment","SSHSS","1","odd","3322","NA","NA","83911","NA","NA","117606","116535","2749","NA","NA","117716","118207","117596","117716","2732","Flanker Task","64","32374","68","yes","1024"
"94.2028985507","94.2028985507","476.188405797","476.188405797","black","legacy","legacy","legacy","0","Congruent","uniform","1","undefined","1","h","0","0","0","68","68","0","68","68","0","0","0","68","68","68","68","0","Mon Sep  3 13:45:17 2018","1500","The main experiment item","yes","FlankerTask.osexp","/Users/emmaleemorgan/Desktop","no","mono","no","18","no","white","no","yes","768","legacy","68","68","/Users/emmaleemorgan/Desktop/EM-subject-1, f, 32.csv","legacy","Kafkaesque Koffka","3.2.5","0","h","NA","h","NA","NA","h","483","NA","564","NA","NA","483","2","legacy","1024","2","48000","-16","experiment","HHHHH","1","odd","3322","NA","NA","83911","NA","NA","119286","118219","2749","NA","NA","119398","119883","119276","119397","2732","Flanker Task","65","32857","69","yes","1024"
"94.2857142857","94.2857142857","475.042857143","475.042857143","black","legacy","legacy","legacy","0","Congruent","uniform","1","undefined","1","h","0","0","0","69","69","0","69","69","0","0","0","69","69","69","69","0","Mon Sep  3 13:45:17 2018","1500","The main experiment item","yes","FlankerTask.osexp","/Users/emmaleemorgan/Desktop","no","mono","no","18","no","white","no","yes","768","legacy","69","69","/Users/emmaleemorgan/Desktop/EM-subject-1, f, 32.csv","legacy","Kafkaesque Koffka","3.2.5","0","h","NA","h","NA","NA","h","396","NA","564","NA","NA","396","2","legacy","1024","2","48000","-16","experiment","HHHHH","1","odd","3322","NA","NA","83911","NA","NA","120968","119895","2749","NA","NA","121080","121477","120957","121079","2732","Flanker Task","66","33253","70","yes","1024"
"94.3661971831","94.3661971831","475.929577465","475.929577465","black","legacy","legacy","legacy","0","Incongruent","uniform","1","undefined","1","h","0","0","0","70","70","0","70","70","0","0","0","70","70","70","70","0","Mon Sep  3 13:45:17 2018","1500","The main experiment item","yes","FlankerTask.osexp","/Users/emmaleemorgan/Desktop","no","mono","no","18","no","white","no","yes","768","legacy","70","70","/Users/emmaleemorgan/Desktop/EM-subject-1, f, 32.csv","legacy","Kafkaesque Koffka","3.2.5","0","h","NA","h","NA","NA","h","538","NA","564","NA","NA","538","2","legacy","1024","2","48000","-16","experiment","SSHSS","1","odd","3322","NA","NA","83911","NA","NA","122561","121490","2749","NA","NA","122673","123212","122551","122673","2732","Flanker Task","67","33791","71","yes","1024"
"94.4444444444","94.4444444444","477.125","477.125","black","legacy","legacy","legacy","0","Incongruent","uniform","1","undefined","1","h","0","0","0","71","71","0","71","71","0","0","0","71","71","71","71","0","Mon Sep  3 13:45:17 2018","1500","The main experiment item","yes","FlankerTask.osexp","/Users/emmaleemorgan/Desktop","no","mono","no","18","no","white","no","yes","768","legacy","71","71","/Users/emmaleemorgan/Desktop/EM-subject-1, f, 32.csv","legacy","Kafkaesque Koffka","3.2.5","0","h","NA","h","NA","NA","h","562","NA","564","NA","NA","562","2","legacy","1024","2","48000","-16","experiment","SSHSS","1","odd","3322","NA","NA","83911","NA","NA","124296","123225","2749","NA","NA","124408","124972","124286","124408","2732","Flanker Task","68","34353","72","yes","1024"
"94.5205479452","94.5205479452","478.657534247","478.657534247","black","legacy","legacy","legacy","0","Incongruent","uniform","1","undefined","1","s","0","0","0","72","72","0","72","72","0","0","0","72","72","72","72","0","Mon Sep  3 13:45:17 2018","1500","The main experiment item","yes","FlankerTask.osexp","/Users/emmaleemorgan/Desktop","no","mono","no","18","no","white","no","yes","768","legacy","72","72","/Users/emmaleemorgan/Desktop/EM-subject-1, f, 32.csv","legacy","Kafkaesque Koffka","3.2.5","0","s","NA","h","NA","NA","s","589","NA","564","NA","NA","589","2","legacy","1024","2","48000","-16","experiment","HHSHH","1","odd","3322","NA","NA","83911","NA","NA","126056","124987","2749","NA","NA","126167","126757","126047","126167","2732","Flanker Task","69","34942","73","yes","1024"
"94.5945945946","94.5945945946","479.027027027","479.027027027","black","legacy","legacy","legacy","0","Incongruent","uniform","1","undefined","1","s","0","0","0","73","73","0","73","73","0","0","0","73","73","73","73","0","Mon Sep  3 13:45:17 2018","1500","The main experiment item","yes","FlankerTask.osexp","/Users/emmaleemorgan/Desktop","no","mono","no","18","no","white","no","yes","768","legacy","73","73","/Users/emmaleemorgan/Desktop/EM-subject-1, f, 32.csv","legacy","Kafkaesque Koffka","3.2.5","0","s","NA","h","NA","NA","s","506","NA","564","NA","NA","506","2","legacy","1024","2","48000","-16","experiment","HHSHH","1","odd","3322","NA","NA","83911","NA","NA","127838","126770","2749","NA","NA","127950","128457","127827","127950","2732","Flanker Task","70","35448","74","yes","1024"
"94.6666666667","94.6666666667","479.253333333","479.253333333","black","legacy","legacy","legacy","0","Congruent","uniform","1","undefined","1","s","0","0","0","74","74","0","74","74","0","0","0","74","74","74","74","0","Mon Sep  3 13:45:17 2018","1500","The main experiment item","yes","FlankerTask.osexp","/Users/emmaleemorgan/Desktop","no","mono","no","18","no","white","no","yes","768","legacy","74","74","/Users/emmaleemorgan/Desktop/EM-subject-1, f, 32.csv","legacy","Kafkaesque Koffka","3.2.5","0","s","NA","h","NA","NA","s","496","NA","564","NA","NA","496","2","legacy","1024","2","48000","-16","experiment","SSSSS","1","odd","3322","NA","NA","83911","NA","NA","129540","128470","2749","NA","NA","129654","130151","129530","129653","2732","Flanker Task","71","35944","75","yes","1024"
"94.7368421053","94.7368421053","479.618421053","479.618421053","black","legacy","legacy","legacy","0","Incongruent","uniform","1","undefined","1","h","0","0","0","75","75","0","75","75","0","0","0","75","75","75","75","0","Mon Sep  3 13:45:17 2018","1500","The main experiment item","yes","FlankerTask.osexp","/Users/emmaleemorgan/Desktop","no","mono","no","18","no","white","no","yes","768","legacy","75","75","/Users/emmaleemorgan/Desktop/EM-subject-1, f, 32.csv","legacy","Kafkaesque Koffka","3.2.5","0","h","NA","h","NA","NA","h","507","NA","564","NA","NA","507","2","legacy","1024","2","48000","-16","experiment","SSHSS","1","odd","3322","NA","NA","83911","NA","NA","131235","130165","2749","NA","NA","131349","131858","131225","131349","2732","Flanker Task","72","36451","76","yes","1024"
"94.8051948052","94.8051948052","479.714285714","479.714285714","black","legacy","legacy","legacy","0","Congruent","uniform","1","undefined","1","s","0","0","0","76","76","0","76","76","0","0","0","76","76","76","76","0","Mon Sep  3 13:45:17 2018","1500","The main experiment item","yes","FlankerTask.osexp","/Users/emmaleemorgan/Desktop","no","mono","no","18","no","white","no","yes","768","legacy","76","76","/Users/emmaleemorgan/Desktop/EM-subject-1, f, 32.csv","legacy","Kafkaesque Koffka","3.2.5","0","s","NA","h","NA","NA","s","487","NA","564","NA","NA","487","2","legacy","1024","2","48000","-16","experiment","SSSSS","1","odd","3322","NA","NA","83911","NA","NA","132941","131869","2749","NA","NA","133053","133541","132931","133053","2732","Flanker Task","73","36938","77","yes","1024"
"94.8717948718","94.8717948718","479.666666667","479.666666667","black","legacy","legacy","legacy","0","Incongruent","uniform","1","undefined","1","h","0","0","0","77","77","0","77","77","0","0","0","77","77","77","77","0","Mon Sep  3 13:45:17 2018","1500","The main experiment item","yes","FlankerTask.osexp","/Users/emmaleemorgan/Desktop","no","mono","no","18","no","white","no","yes","768","legacy","77","77","/Users/emmaleemorgan/Desktop/EM-subject-1, f, 32.csv","legacy","Kafkaesque Koffka","3.2.5","0","h","NA","h","NA","NA","h","476","NA","564","NA","NA","476","2","legacy","1024","2","48000","-16","experiment","SSHSS","1","odd","3322","NA","NA","83911","NA","NA","134623","133553","2749","NA","NA","134737","135214","134613","134736","2732","Flanker Task","74","37414","78","yes","1024"
"94.9367088608","94.9367088608","479.772151899","479.772151899","black","legacy","legacy","legacy","0","Congruent","uniform","1","undefined","1","h","0","0","0","78","78","0","78","78","0","0","0","78","78","78","78","0","Mon Sep  3 13:45:17 2018","1500","The main experiment item","yes","FlankerTask.osexp","/Users/emmaleemorgan/Desktop","no","mono","no","18","no","white","no","yes","768","legacy","78","78","/Users/emmaleemorgan/Desktop/EM-subject-1, f, 32.csv","legacy","Kafkaesque Koffka","3.2.5","0","h","NA","h","NA","NA","h","488","NA","564","NA","NA","488","2","legacy","1024","2","48000","-16","experiment","HHHHH","1","odd","3322","NA","NA","83911","NA","NA","136311","135227","2749","NA","NA","136424","136915","136296","136424","2732","Flanker Task","75","37902","79","yes","1024"
"95","95","480.2125","480.2125","black","legacy","legacy","legacy","0","Congruent","uniform","1","undefined","1","s","0","0","0","79","79","0","79","79","0","0","0","79","79","79","79","0","Mon Sep  3 13:45:17 2018","1500","The main experiment item","yes","FlankerTask.osexp","/Users/emmaleemorgan/Desktop","no","mono","no","18","no","white","no","yes","768","legacy","79","79","/Users/emmaleemorgan/Desktop/EM-subject-1, f, 32.csv","legacy","Kafkaesque Koffka","3.2.5","0","s","NA","h","NA","NA","s","515","NA","564","NA","NA","515","2","legacy","1024","2","48000","-16","experiment","SSSSS","1","odd","3322","NA","NA","83911","NA","NA","138023","136929","2749","NA","NA","138136","138653","138010","138136","2732","Flanker Task","76","38417","80","yes","1024"
"95.0617283951","95.0617283951","481.827160494","481.827160494","black","legacy","legacy","legacy","0","Incongruent","uniform","1","undefined","1","h","0","0","0","80","80","0","80","80","0","0","0","80","80","80","80","0","Mon Sep  3 13:45:17 2018","600","The main experiment item","yes","FlankerTask.osexp","/Users/emmaleemorgan/Desktop","no","mono","no","18","no","white","no","yes","768","legacy","0","79","/Users/emmaleemorgan/Desktop/EM-subject-1, f, 32.csv","legacy","Kafkaesque Koffka","3.2.5","0","h","NA","h","h","NA","h","611","NA","564","40857","NA","611","2","legacy","1024","2","48000","-16","experiment","SSHSS","1","odd","3322","180546","NA","83911","NA","NA","180609","138665","2749","139688","NA","180721","181334","180599","180721","2732","Flanker Task","77","39028","81","yes","1024"
"95.1219512195","95.1219512195","480.463414634","480.463414634","black","legacy","legacy","legacy","0","Congruent","uniform","1","undefined","1","s","0","0","0","81","81","0","81","81","0","0","0","81","81","81","81","0","Mon Sep  3 13:45:17 2018","600","The main experiment item","yes","FlankerTask.osexp","/Users/emmaleemorgan/Desktop","no","mono","no","18","no","white","no","yes","768","legacy","1","79","/Users/emmaleemorgan/Desktop/EM-subject-1, f, 32.csv","legacy","Kafkaesque Koffka","3.2.5","0","s","NA","h","h","NA","s","370","NA","564","40857","NA","370","2","legacy","1024","2","48000","-16","experiment","SSSSS","1","odd","3322","180546","NA","83911","181347","NA","182926","181857","2749","139688","NA","183039","183410","182916","183039","2732","Flanker Task","78","39398","82","yes","1024"
"95.1807228916","95.1807228916","479.096385542","479.096385542","black","legacy","legacy","legacy","0","Congruent","uniform","1","undefined","1","s","0","0","0","82","82","0","82","82","0","0","0","82","82","82","82","0","Mon Sep  3 13:45:17 2018","600","The main experiment item","yes","FlankerTask.osexp","/Users/emmaleemorgan/Desktop","no","mono","no","18","no","white","no","yes","768","legacy","2","79","/Users/emmaleemorgan/Desktop/EM-subject-1, f, 32.csv","legacy","Kafkaesque Koffka","3.2.5","0","s","NA","h","h","NA","s","367","NA","564","40857","NA","367","2","legacy","1024","2","48000","-16","experiment","SSSSS","1","odd","3322","180546","NA","83911","181347","NA","184495","183423","2749","139688","NA","184607","184976","184485","184607","2732","Flanker Task","79","39765","83","yes","1024"
"95.2380952381","95.2380952381","477.321428571","477.321428571","black","legacy","legacy","legacy","0","Incongruent","uniform","1","undefined","1","h","0","0","0","83","83","0","83","83","0","0","0","83","83","83","83","0","Mon Sep  3 13:45:17 2018","600","The main experiment item","yes","FlankerTask.osexp","/Users/emmaleemorgan/Desktop","no","mono","no","18","no","white","no","yes","768","legacy","3","79","/Users/emmaleemorgan/Desktop/EM-subject-1, f, 32.csv","legacy","Kafkaesque Koffka","3.2.5","0","h","NA","h","h","NA","h","330","NA","564","40857","NA","330","2","legacy","1024","2","48000","-16","experiment","SSHSS","1","odd","3322","180546","NA","83911","181347","NA","186057","184990","2749","139688","NA","186168","186500","186047","186168","2732","Flanker Task","80","40095","84","yes","1024"
"95.2941176471","95.2941176471","475.423529412","475.423529412","black","legacy","legacy","legacy","0","Congruent","uniform","1","undefined","1","h","0","0","0","84","84","0","84","84","0","0","0","84","84","84","84","0","Mon Sep  3 13:45:17 2018","600","The main experiment item","yes","FlankerTask.osexp","/Users/emmaleemorgan/Desktop","no","mono","no","18","no","white","no","yes","768","legacy","4","79","/Users/emmaleemorgan/Desktop/EM-subject-1, f, 32.csv","legacy","Kafkaesque Koffka","3.2.5","0","h","NA","h","h","NA","h","316","NA","564","40857","NA","316","2","legacy","1024","2","48000","-16","experiment","HHHHH","1","odd","3322","180546","NA","83911","181347","NA","187586","186514","2749","139688","NA","187696","188014","187576","187696","2732","Flanker Task","81","40411","85","yes","1024"
"95.3488372093","95.3488372093","474.441860465","474.441860465","black","legacy","legacy","legacy","0","Congruent","uniform","1","undefined","1","s","0","0","0","85","85","0","85","85","0","0","0","85","85","85","85","0","Mon Sep  3 13:45:17 2018","600","The main experiment item","yes","FlankerTask.osexp","/Users/emmaleemorgan/Desktop","no","mono","no","18","no","white","no","yes","768","legacy","5","79","/Users/emmaleemorgan/Desktop/EM-subject-1, f, 32.csv","legacy","Kafkaesque Koffka","3.2.5","0","s","NA","h","h","NA","s","391","NA","564","40857","NA","391","2","legacy","1024","2","48000","-16","experiment","SSSSS","1","odd","3322","180546","NA","83911","181347","NA","189097","188026","2749","139688","NA","189207","189600","189086","189207","2732","Flanker Task","82","40802","86","yes","1024"
"95.4022988506","95.4022988506","473.32183908","473.32183908","black","legacy","legacy","legacy","0","Congruent","uniform","1","undefined","1","s","0","0","0","86","86","0","86","86","0","0","0","86","86","86","86","0","Mon Sep  3 13:45:17 2018","600","The main experiment item","yes","FlankerTask.osexp","/Users/emmaleemorgan/Desktop","no","mono","no","18","no","white","no","yes","768","legacy","6","79","/Users/emmaleemorgan/Desktop/EM-subject-1, f, 32.csv","legacy","Kafkaesque Koffka","3.2.5","0","s","NA","h","h","NA","s","377","NA","564","40857","NA","377","2","legacy","1024","2","48000","-16","experiment","SSSSS","1","odd","3322","180546","NA","83911","181347","NA","190684","189613","2749","139688","NA","190798","191177","190674","190797","2732","Flanker Task","83","41179","87","yes","1024"
"95.4545454545","95.4545454545","472.238636364","472.238636364","black","legacy","legacy","legacy","0","Congruent","uniform","1","undefined","1","s","0","0","0","87","87","0","87","87","0","0","0","87","87","87","87","0","Mon Sep  3 13:45:17 2018","600","The main experiment item","yes","FlankerTask.osexp","/Users/emmaleemorgan/Desktop","no","mono","no","18","no","white","no","yes","768","legacy","7","79","/Users/emmaleemorgan/Desktop/EM-subject-1, f, 32.csv","legacy","Kafkaesque Koffka","3.2.5","0","s","NA","h","h","NA","s","378","NA","564","40857","NA","378","2","legacy","1024","2","48000","-16","experiment","SSSSS","1","odd","3322","180546","NA","83911","181347","NA","192261","191190","2749","139688","NA","192374","192754","192251","192374","2732","Flanker Task","84","41557","88","yes","1024"
"94.3820224719","94.3820224719","471.303370787","471.303370787","black","legacy","legacy","legacy","0","Congruent","uniform","0","undefined","0","h","0","0","0","88","88","0","88","88","0","0","0","88","88","88","88","0","Mon Sep  3 13:45:17 2018","600","The main experiment item","yes","FlankerTask.osexp","/Users/emmaleemorgan/Desktop","no","mono","no","18","no","white","no","yes","768","legacy","8","79","/Users/emmaleemorgan/Desktop/EM-subject-1, f, 32.csv","legacy","Kafkaesque Koffka","3.2.5","0","s","NA","h","h","NA","s","389","NA","564","40857","NA","389","2","legacy","1024","2","48000","-16","experiment","HHHHH","1","odd","3322","180546","NA","83911","181347","NA","193839","192767","2749","139688","NA","193952","194343","193829","193952","2732","Flanker Task","84","41946","89","yes","1024"
"94.4444444444","94.4444444444","470.844444444","470.844444444","black","legacy","legacy","legacy","0","Congruent","uniform","1","undefined","1","s","0","0","0","89","89","0","89","89","0","0","0","89","89","89","89","0","Mon Sep  3 13:45:17 2018","600","The main experiment item","yes","FlankerTask.osexp","/Users/emmaleemorgan/Desktop","no","mono","no","18","no","white","no","yes","768","legacy","9","79","/Users/emmaleemorgan/Desktop/EM-subject-1, f, 32.csv","legacy","Kafkaesque Koffka","3.2.5","0","s","NA","h","h","NA","s","430","NA","564","40857","NA","430","2","legacy","1024","2","48000","-16","experiment","SSSSS","1","odd","3322","180546","NA","194357","181347","NA","195939","194868","2749","139688","NA","196052","196484","195929","196052","2732","Flanker Task","85","42376","90","yes","1024"
"94.5054945055","94.5054945055","471.450549451","471.450549451","black","legacy","legacy","legacy","0","Incongruent","uniform","1","undefined","1","h","0","0","0","90","90","0","90","90","0","0","0","90","90","90","90","0","Mon Sep  3 13:45:17 2018","600","The main experiment item","yes","FlankerTask.osexp","/Users/emmaleemorgan/Desktop","no","mono","no","18","no","white","no","yes","768","legacy","10","79","/Users/emmaleemorgan/Desktop/EM-subject-1, f, 32.csv","legacy","Kafkaesque Koffka","3.2.5","0","h","NA","h","h","NA","h","526","NA","564","40857","NA","526","2","legacy","1024","2","48000","-16","experiment","SSHSS","1","odd","3322","180546","NA","194357","181347","NA","197568","196497","2749","139688","NA","197681","198209","197558","197680","2732","Flanker Task","86","42902","91","yes","1024"
"94.5652173913","94.5652173913","470.945652174","470.945652174","black","legacy","legacy","legacy","0","Incongruent","uniform","1","undefined","1","h","0","0","0","91","91","0","91","91","0","0","0","91","91","91","91","0","Mon Sep  3 13:45:17 2018","600","The main experiment item","yes","FlankerTask.osexp","/Users/emmaleemorgan/Desktop","no","mono","no","18","no","white","no","yes","768","legacy","11","79","/Users/emmaleemorgan/Desktop/EM-subject-1, f, 32.csv","legacy","Kafkaesque Koffka","3.2.5","0","h","NA","h","h","NA","h","425","NA","564","40857","NA","425","2","legacy","1024","2","48000","-16","experiment","SSHSS","1","odd","3322","180546","NA","194357","181347","NA","199289","198222","2749","139688","NA","199401","199828","199279","199401","2732","Flanker Task","87","43327","92","yes","1024"
"93.5483870968","93.5483870968","471.086021505","471.086021505","black","legacy","legacy","legacy","0","Incongruent","uniform","0","undefined","0","s","0","0","0","92","92","0","92","92","0","0","0","92","92","92","92","0","Mon Sep  3 13:45:17 2018","600","The main experiment item","yes","FlankerTask.osexp","/Users/emmaleemorgan/Desktop","no","mono","no","18","no","white","no","yes","768","legacy","12","79","/Users/emmaleemorgan/Desktop/EM-subject-1, f, 32.csv","legacy","Kafkaesque Koffka","3.2.5","0","h","NA","h","h","NA","h","484","NA","564","40857","NA","484","2","legacy","1024","2","48000","-16","experiment","HHSHH","1","odd","3322","180546","NA","194357","181347","NA","200913","199841","2749","139688","NA","201025","201511","200903","201025","2732","Flanker Task","87","43811","93","yes","1024"
"93.6170212766","93.6170212766","470.542553191","470.542553191","black","legacy","legacy","legacy","0","Congruent","uniform","1","undefined","1","h","0","0","0","93","93","0","93","93","0","0","0","93","93","93","93","0","Mon Sep  3 13:45:17 2018","600","The main experiment item","yes","FlankerTask.osexp","/Users/emmaleemorgan/Desktop","no","mono","no","18","no","white","no","yes","768","legacy","13","79","/Users/emmaleemorgan/Desktop/EM-subject-1, f, 32.csv","legacy","Kafkaesque Koffka","3.2.5","0","h","NA","h","h","NA","h","420","NA","564","40857","NA","420","2","legacy","1024","2","48000","-16","experiment","HHHHH","1","odd","3322","180546","NA","201524","181347","NA","203106","202035","2749","139688","NA","203218","203640","203096","203217","2732","Flanker Task","88","44231","94","yes","1024"
"93.6842105263","93.6842105263","470.526315789","470.526315789","black","legacy","legacy","legacy","0","Incongruent","uniform","1","undefined","1","h","0","0","0","94","94","0","94","94","0","0","0","94","94","94","94","0","Mon Sep  3 13:45:17 2018","600","The main experiment item","yes","FlankerTask.osexp","/Users/emmaleemorgan/Desktop","no","mono","no","18","no","white","no","yes","768","legacy","14","79","/Users/emmaleemorgan/Desktop/EM-subject-1, f, 32.csv","legacy","Kafkaesque Koffka","3.2.5","0","h","NA","h","h","NA","h","469","NA","564","40857","NA","469","2","legacy","1024","2","48000","-16","experiment","SSHSS","1","odd","3322","180546","NA","201524","181347","NA","204726","203653","2749","139688","NA","204840","205311","204716","204840","2732","Flanker Task","89","44700","95","yes","1024"
"93.75","93.75","470.09375","470.09375","black","legacy","legacy","legacy","0","Congruent","uniform","1","undefined","1","s","0","0","0","95","95","0","95","95","0","0","0","95","95","95","95","0","Mon Sep  3 13:45:17 2018","600","The main experiment item","yes","FlankerTask.osexp","/Users/emmaleemorgan/Desktop","no","mono","no","18","no","white","no","yes","768","legacy","15","79","/Users/emmaleemorgan/Desktop/EM-subject-1, f, 32.csv","legacy","Kafkaesque Koffka","3.2.5","0","s","NA","h","h","NA","s","429","NA","564","40857","NA","429","2","legacy","1024","2","48000","-16","experiment","SSSSS","1","odd","3322","180546","NA","201524","181347","NA","206397","205324","2749","139688","NA","206509","206940","206387","206509","2732","Flanker Task","90","45129","96","yes","1024"
"93.8144329897","93.8144329897","470.597938144","470.597938144","black","legacy","legacy","legacy","0","Incongruent","uniform","1","undefined","1","s","0","0","0","96","96","0","96","96","0","0","0","96","96","96","96","0","Mon Sep  3 13:45:17 2018","600","The main experiment item","yes","FlankerTask.osexp","/Users/emmaleemorgan/Desktop","no","mono","no","18","no","white","no","yes","768","legacy","16","79","/Users/emmaleemorgan/Desktop/EM-subject-1, f, 32.csv","legacy","Kafkaesque Koffka","3.2.5","0","s","NA","h","h","NA","s","519","NA","564","40857","NA","519","2","legacy","1024","2","48000","-16","experiment","HHSHH","1","odd","3322","180546","NA","201524","181347","NA","208023","206953","2749","139688","NA","208135","208656","208013","208135","2732","Flanker Task","91","45648","97","yes","1024"
"93.8775510204","93.8775510204","470.142857143","470.142857143","black","legacy","legacy","legacy","0","Incongruent","uniform","1","undefined","1","h","0","0","0","97","97","0","97","97","0","0","0","97","97","97","97","0","Mon Sep  3 13:45:17 2018","600","The main experiment item","yes","FlankerTask.osexp","/Users/emmaleemorgan/Desktop","no","mono","no","18","no","white","no","yes","768","legacy","17","79","/Users/emmaleemorgan/Desktop/EM-subject-1, f, 32.csv","legacy","Kafkaesque Koffka","3.2.5","0","h","NA","h","h","NA","h","426","NA","564","40857","NA","426","2","legacy","1024","2","48000","-16","experiment","SSHSS","1","odd","3322","180546","NA","201524","181347","NA","209742","208670","2749","139688","NA","209856","210284","209732","209855","2732","Flanker Task","92","46074","98","yes","1024"
"92.9292929293","92.9292929293","469.050505051","469.050505051","black","legacy","legacy","legacy","0","Incongruent","uniform","0","undefined","0","s","0","0","0","98","98","0","98","98","0","0","0","98","98","98","98","0","Mon Sep  3 13:45:17 2018","600","The main experiment item","yes","FlankerTask.osexp","/Users/emmaleemorgan/Desktop","no","mono","no","18","no","white","no","yes","768","legacy","18","79","/Users/emmaleemorgan/Desktop/EM-subject-1, f, 32.csv","legacy","Kafkaesque Koffka","3.2.5","0","h","NA","h","h","NA","h","362","NA","564","40857","NA","362","2","legacy","1024","2","48000","-16","experiment","HHSHH","1","odd","3322","180546","NA","201524","181347","NA","211368","210296","2749","139688","NA","211482","211846","211358","211481","2732","Flanker Task","92","46436","99","yes","1024"
"93","93","468.84","468.84","black","legacy","legacy","legacy","0","Congruent","uniform","1","undefined","1","h","0","0","0","99","99","0","99","99","0","0","0","99","99","99","99","0","Mon Sep  3 13:45:17 2018","600","The main experiment item","yes","FlankerTask.osexp","/Users/emmaleemorgan/Desktop","no","mono","no","18","no","white","no","yes","768","legacy","19","79","/Users/emmaleemorgan/Desktop/EM-subject-1, f, 32.csv","legacy","Kafkaesque Koffka","3.2.5","0","h","NA","h","h","NA","h","448","NA","564","40857","NA","448","2","legacy","1024","2","48000","-16","experiment","HHHHH","1","odd","3322","180546","NA","211859","181347","NA","213443","212372","2749","139688","NA","213559","214009","213433","213558","2732","Flanker Task","93","46884","100","yes","1024"
"93.0693069307","93.0693069307","468.089108911","468.089108911","black","legacy","legacy","legacy","0","Congruent","uniform","1","undefined","1","h","0","0","0","100","100","0","100","100","0","0","0","100","100","100","100","0","Mon Sep  3 13:45:17 2018","600","The main experiment item","yes","FlankerTask.osexp","/Users/emmaleemorgan/Desktop","no","mono","no","18","no","white","no","yes","768","legacy","20","79","/Users/emmaleemorgan/Desktop/EM-subject-1, f, 32.csv","legacy","Kafkaesque Koffka","3.2.5","0","h","NA","h","h","NA","h","393","NA","564","40857","NA","393","2","legacy","1024","2","48000","-16","experiment","HHHHH","1","odd","3322","180546","NA","211859","181347","NA","215096","214023","2749","139688","NA","215211","215606","215085","215211","2732","Flanker Task","94","47277","101","yes","1024"
"92.1568627451","92.1568627451","467.441176471","467.441176471","black","legacy","legacy","legacy","0","Incongruent","uniform","0","undefined","0","h","0","0","0","101","101","0","101","101","0","0","0","101","101","101","101","0","Mon Sep  3 13:45:17 2018","600","The main experiment item","yes","FlankerTask.osexp","/Users/emmaleemorgan/Desktop","no","mono","no","18","no","white","no","yes","768","legacy","21","79","/Users/emmaleemorgan/Desktop/EM-subject-1, f, 32.csv","legacy","Kafkaesque Koffka","3.2.5","0","s","NA","h","h","NA","s","402","NA","564","40857","NA","402","2","legacy","1024","2","48000","-16","experiment","SSHSS","1","odd","3322","180546","NA","211859","181347","NA","216688","215618","2749","139688","NA","216799","217203","216678","216799","2732","Flanker Task","94","47679","102","yes","1024"
"92.2330097087","92.2330097087","465.669902913","465.669902913","black","legacy","legacy","legacy","0","Congruent","uniform","1","undefined","1","h","0","0","0","102","102","0","102","102","0","0","0","102","102","102","102","0","Mon Sep  3 13:45:17 2018","600","The main experiment item","yes","FlankerTask.osexp","/Users/emmaleemorgan/Desktop","no","mono","no","18","no","white","no","yes","768","legacy","22","79","/Users/emmaleemorgan/Desktop/EM-subject-1, f, 32.csv","legacy","Kafkaesque Koffka","3.2.5","0","h","NA","h","h","NA","h","285","NA","564","40857","NA","285","2","legacy","1024","2","48000","-16","experiment","HHHHH","1","odd","3322","180546","NA","217215","181347","NA","218797","217726","2749","139688","NA","218910","219198","218787","218909","2732","Flanker Task","95","47964","103","yes","1024"
"92.3076923077","92.3076923077","464.826923077","464.826923077","black","legacy","legacy","legacy","0","Congruent","uniform","1","undefined","1","h","0","0","0","103","103","0","103","103","0","0","0","103","103","103","103","0","Mon Sep  3 13:45:17 2018","600","The main experiment item","yes","FlankerTask.osexp","/Users/emmaleemorgan/Desktop","no","mono","no","18","no","white","no","yes","768","legacy","23","79","/Users/emmaleemorgan/Desktop/EM-subject-1, f, 32.csv","legacy","Kafkaesque Koffka","3.2.5","0","h","NA","h","h","NA","h","378","NA","564","40857","NA","378","2","legacy","1024","2","48000","-16","experiment","HHHHH","1","odd","3322","180546","NA","217215","181347","NA","220283","219209","2749","139688","NA","220397","220777","220272","220396","2732","Flanker Task","96","48342","104","yes","1024"
"92.380952381","92.380952381","463.619047619","463.619047619","black","legacy","legacy","legacy","0","Congruent","uniform","1","undefined","1","h","0","0","0","104","104","0","104","104","0","0","0","104","104","104","104","0","Mon Sep  3 13:45:17 2018","600","The main experiment item","yes","FlankerTask.osexp","/Users/emmaleemorgan/Desktop","no","mono","no","18","no","white","no","yes","768","legacy","24","79","/Users/emmaleemorgan/Desktop/EM-subject-1, f, 32.csv","legacy","Kafkaesque Koffka","3.2.5","0","h","NA","h","h","NA","h","338","NA","564","40857","NA","338","2","legacy","1024","2","48000","-16","experiment","HHHHH","1","odd","3322","180546","NA","217215","181347","NA","221862","220789","2749","139688","NA","221972","222312","221851","221972","2732","Flanker Task","97","48680","105","yes","1024"
"91.5094339623","91.5094339623","463.41509434","463.41509434","black","legacy","legacy","legacy","0","Incongruent","uniform","0","undefined","0","h","0","0","0","105","105","0","105","105","0","0","0","105","105","105","105","0","Mon Sep  3 13:45:17 2018","600","The main experiment item","yes","FlankerTask.osexp","/Users/emmaleemorgan/Desktop","no","mono","no","18","no","white","no","yes","768","legacy","25","79","/Users/emmaleemorgan/Desktop/EM-subject-1, f, 32.csv","legacy","Kafkaesque Koffka","3.2.5","0","s","NA","h","h","NA","s","442","NA","564","40857","NA","442","2","legacy","1024","2","48000","-16","experiment","SSHSS","1","odd","3322","180546","NA","217215","181347","NA","223393","222323","2749","139688","NA","223509","223953","223383","223508","2732","Flanker Task","97","49122","106","yes","1024"
"91.5887850467","91.5887850467","463.925233645","463.925233645","black","legacy","legacy","legacy","0","Congruent","uniform","1","undefined","1","s","0","0","0","106","106","0","106","106","0","0","0","106","106","106","106","0","Mon Sep  3 13:45:17 2018","600","The main experiment item","yes","FlankerTask.osexp","/Users/emmaleemorgan/Desktop","no","mono","no","18","no","white","no","yes","768","legacy","26","79","/Users/emmaleemorgan/Desktop/EM-subject-1, f, 32.csv","legacy","Kafkaesque Koffka","3.2.5","0","s","NA","h","h","NA","s","518","NA","564","40857","NA","518","2","legacy","1024","2","48000","-16","experiment","SSSSS","1","odd","3322","180546","NA","223967","181347","NA","225548","224477","2749","139688","NA","225660","226180","225539","225660","2732","Flanker Task","98","49640","107","yes","1024"
"91.6666666667","91.6666666667","463.333333333","463.333333333","black","legacy","legacy","legacy","0","Congruent","uniform","1","undefined","1","h","0","0","0","107","107","0","107","107","0","0","0","107","107","107","107","0","Mon Sep  3 13:45:17 2018","600","The main experiment item","yes","FlankerTask.osexp","/Users/emmaleemorgan/Desktop","no","mono","no","18","no","white","no","yes","768","legacy","27","79","/Users/emmaleemorgan/Desktop/EM-subject-1, f, 32.csv","legacy","Kafkaesque Koffka","3.2.5","0","h","NA","h","h","NA","h","400","NA","564","40857","NA","400","2","legacy","1024","2","48000","-16","experiment","HHHHH","1","odd","3322","180546","NA","223967","181347","NA","227264","226193","2749","139688","NA","227377","227779","227254","227377","2732","Flanker Task","99","50040","108","yes","1024"
"91.7431192661","91.7431192661","462.568807339","462.568807339","black","legacy","legacy","legacy","0","Congruent","uniform","1","undefined","1","h","0","0","0","108","108","0","108","108","0","0","0","108","108","108","108","0","Mon Sep  3 13:45:17 2018","600","The main experiment item","yes","FlankerTask.osexp","/Users/emmaleemorgan/Desktop","no","mono","no","18","no","white","no","yes","768","legacy","28","79","/Users/emmaleemorgan/Desktop/EM-subject-1, f, 32.csv","legacy","Kafkaesque Koffka","3.2.5","0","h","NA","h","h","NA","h","380","NA","564","40857","NA","380","2","legacy","1024","2","48000","-16","experiment","HHHHH","1","odd","3322","180546","NA","223967","181347","NA","228858","227792","2749","139688","NA","228970","229351","228849","228970","2732","Flanker Task","100","50420","109","yes","1024"
"91.8181818182","91.8181818182","464.709090909","464.709090909","black","legacy","legacy","legacy","0","Incongruent","uniform","1","undefined","1","h","0","0","0","109","109","0","109","109","0","0","0","109","109","109","109","0","Mon Sep  3 13:45:17 2018","600","The main experiment item","yes","FlankerTask.osexp","/Users/emmaleemorgan/Desktop","no","mono","no","18","no","white","no","yes","768","legacy","29","79","/Users/emmaleemorgan/Desktop/EM-subject-1, f, 32.csv","legacy","Kafkaesque Koffka","3.2.5","0","h","NA","h","h","NA","h","698","NA","564","40857","NA","698","2","legacy","1024","2","48000","-16","experiment","SSHSS","1","odd","3322","180546","NA","223967","181347","NA","230434","229364","2749","139688","NA","230546","231245","230424","230546","2732","Flanker Task","101","51118","110","yes","1024"
"91.8918918919","91.8918918919","465.036036036","465.036036036","black","legacy","legacy","legacy","0","Congruent","uniform","1","undefined","1","h","0","0","0","110","110","0","110","110","0","0","0","110","110","110","110","0","Mon Sep  3 13:45:17 2018","600","The main experiment item","yes","FlankerTask.osexp","/Users/emmaleemorgan/Desktop","no","mono","no","18","no","white","no","yes","768","legacy","30","79","/Users/emmaleemorgan/Desktop/EM-subject-1, f, 32.csv","legacy","Kafkaesque Koffka","3.2.5","0","h","NA","h","h","NA","h","501","NA","564","40857","NA","501","2","legacy","1024","2","48000","-16","experiment","HHHHH","1","odd","3322","180546","NA","223967","231259","NA","232841","231770","2749","139688","NA","232953","233455","232831","232953","2732","Flanker Task","102","51619","111","yes","1024"
"91.9642857143","91.9642857143","465.133928571","465.133928571","black","legacy","legacy","legacy","0","Incongruent","uniform","1","undefined","1","s","0","0","0","111","111","0","111","111","0","0","0","111","111","111","111","0","Mon Sep  3 13:45:17 2018","600","The main experiment item","yes","FlankerTask.osexp","/Users/emmaleemorgan/Desktop","no","mono","no","18","no","white","no","yes","768","legacy","31","79","/Users/emmaleemorgan/Desktop/EM-subject-1, f, 32.csv","legacy","Kafkaesque Koffka","3.2.5","0","s","NA","h","h","NA","s","476","NA","564","40857","NA","476","2","legacy","1024","2","48000","-16","experiment","HHSHH","1","odd","3322","180546","NA","223967","231259","NA","234539","233468","2749","139688","NA","234651","235129","234529","234650","2732","Flanker Task","103","52095","112","yes","1024"
"92.0353982301","92.0353982301","464.530973451","464.530973451","black","legacy","legacy","legacy","0","Congruent","uniform","1","undefined","1","h","0","0","0","112","112","0","112","112","0","0","0","112","112","112","112","0","Mon Sep  3 13:45:17 2018","600","The main experiment item","yes","FlankerTask.osexp","/Users/emmaleemorgan/Desktop","no","mono","no","18","no","white","no","yes","768","legacy","32","79","/Users/emmaleemorgan/Desktop/EM-subject-1, f, 32.csv","legacy","Kafkaesque Koffka","3.2.5","0","h","NA","h","h","NA","h","397","NA","564","40857","NA","397","2","legacy","1024","2","48000","-16","experiment","HHHHH","1","odd","3322","180546","NA","223967","231259","NA","236213","235142","2749","139688","NA","236327","236726","236203","236327","2732","Flanker Task","104","52492","113","yes","1024"
"92.1052631579","92.1052631579","464.166666667","464.166666667","black","legacy","legacy","legacy","0","Incongruent","uniform","1","undefined","1","h","0","0","0","113","113","0","113","113","0","0","0","113","113","113","113","0","Mon Sep  3 13:45:17 2018","600","The main experiment item","yes","FlankerTask.osexp","/Users/emmaleemorgan/Desktop","no","mono","no","18","no","white","no","yes","768","legacy","33","79","/Users/emmaleemorgan/Desktop/EM-subject-1, f, 32.csv","legacy","Kafkaesque Koffka","3.2.5","0","h","NA","h","h","NA","h","423","NA","564","40857","NA","423","2","legacy","1024","2","48000","-16","experiment","SSHSS","1","odd","3322","180546","NA","223967","231259","NA","237810","236738","2749","139688","NA","237923","238347","237800","237922","2732","Flanker Task","105","52915","114","yes","1024"
"92.1739130435","92.1739130435","464.2","464.2","black","legacy","legacy","legacy","0","Congruent","uniform","1","undefined","1","s","0","0","0","114","114","0","114","114","0","0","0","114","114","114","114","0","Mon Sep  3 13:45:17 2018","600","The main experiment item","yes","FlankerTask.osexp","/Users/emmaleemorgan/Desktop","no","mono","no","18","no","white","no","yes","768","legacy","34","79","/Users/emmaleemorgan/Desktop/EM-subject-1, f, 32.csv","legacy","Kafkaesque Koffka","3.2.5","0","s","NA","h","h","NA","s","468","NA","564","40857","NA","468","2","legacy","1024","2","48000","-16","experiment","SSSSS","1","odd","3322","180546","NA","223967","231259","NA","239432","238360","2749","139688","NA","239544","240013","239422","239544","2732","Flanker Task","106","53383","115","yes","1024"
"92.2413793103","92.2413793103","463.939655172","463.939655172","black","legacy","legacy","legacy","0","Congruent","uniform","1","undefined","1","h","0","0","0","115","115","0","115","115","0","0","0","115","115","115","115","0","Mon Sep  3 13:45:17 2018","600","The main experiment item","yes","FlankerTask.osexp","/Users/emmaleemorgan/Desktop","no","mono","no","18","no","white","no","yes","768","legacy","35","79","/Users/emmaleemorgan/Desktop/EM-subject-1, f, 32.csv","legacy","Kafkaesque Koffka","3.2.5","0","h","NA","h","h","NA","h","434","NA","564","40857","NA","434","2","legacy","1024","2","48000","-16","experiment","HHHHH","1","odd","3322","180546","NA","223967","231259","NA","241099","240026","2749","139688","NA","241214","241650","241089","241213","2732","Flanker Task","107","53817","116","yes","1024"
"92.3076923077","92.3076923077","464.717948718","464.717948718","black","legacy","legacy","legacy","0","Incongruent","uniform","1","undefined","1","s","0","0","0","116","116","0","116","116","0","0","0","116","116","116","116","0","Mon Sep  3 13:45:17 2018","600","The main experiment item","yes","FlankerTask.osexp","/Users/emmaleemorgan/Desktop","no","mono","no","18","no","white","no","yes","768","legacy","36","79","/Users/emmaleemorgan/Desktop/EM-subject-1, f, 32.csv","legacy","Kafkaesque Koffka","3.2.5","0","s","NA","h","h","NA","s","555","NA","564","40857","NA","555","2","legacy","1024","2","48000","-16","experiment","HHSHH","1","odd","3322","180546","NA","223967","231259","NA","242734","241663","2749","139688","NA","242846","243403","242724","242845","2732","Flanker Task","108","54372","117","yes","1024"
"92.3728813559","92.3728813559","464.86440678","464.86440678","black","legacy","legacy","legacy","0","Congruent","uniform","1","undefined","1","s","0","0","0","117","117","0","117","117","0","0","0","117","117","117","117","0","Mon Sep  3 13:45:17 2018","600","The main experiment item","yes","FlankerTask.osexp","/Users/emmaleemorgan/Desktop","no","mono","no","18","no","white","no","yes","768","legacy","37","79","/Users/emmaleemorgan/Desktop/EM-subject-1, f, 32.csv","legacy","Kafkaesque Koffka","3.2.5","0","s","NA","h","h","NA","s","482","NA","564","40857","NA","482","2","legacy","1024","2","48000","-16","experiment","SSSSS","1","odd","3322","180546","NA","223967","231259","NA","244494","243414","2749","139688","NA","244607","245092","244484","244607","2732","Flanker Task","109","54854","118","yes","1024"
"92.4369747899","92.4369747899","464.092436975","464.092436975","black","legacy","legacy","legacy","0","Incongruent","uniform","1","undefined","1","h","0","0","0","118","118","0","118","118","0","0","0","118","118","118","118","0","Mon Sep  3 13:45:17 2018","600","The main experiment item","yes","FlankerTask.osexp","/Users/emmaleemorgan/Desktop","no","mono","no","18","no","white","no","yes","768","legacy","38","79","/Users/emmaleemorgan/Desktop/EM-subject-1, f, 32.csv","legacy","Kafkaesque Koffka","3.2.5","0","h","NA","h","h","NA","h","373","NA","564","40857","NA","373","2","legacy","1024","2","48000","-16","experiment","SSHSS","1","odd","3322","180546","NA","223967","231259","NA","246186","245105","2749","139688","NA","246298","246673","246174","246298","2732","Flanker Task","110","55227","119","yes","1024"
"92.5","92.5","464.291666667","464.291666667","black","legacy","legacy","legacy","0","Congruent","uniform","1","undefined","1","s","0","0","0","119","119","0","119","119","0","0","0","119","119","119","119","0","Mon Sep  3 13:45:17 2018","600","The main experiment item","yes","FlankerTask.osexp","/Users/emmaleemorgan/Desktop","no","mono","no","18","no","white","no","yes","768","legacy","39","79","/Users/emmaleemorgan/Desktop/EM-subject-1, f, 32.csv","legacy","Kafkaesque Koffka","3.2.5","0","s","NA","h","h","NA","s","488","NA","564","40857","NA","488","2","legacy","1024","2","48000","-16","experiment","SSSSS","1","odd","3322","180546","NA","223967","231259","NA","247759","246686","2749","139688","NA","247871","248361","247749","247871","2732","Flanker Task","111","55715","120","yes","1024"
"92.5619834711","92.5619834711","463.776859504","463.776859504","black","legacy","legacy","legacy","0","Congruent","uniform","1","undefined","1","h","0","0","0","120","120","0","120","120","0","0","0","120","120","120","120","0","Mon Sep  3 13:45:17 2018","600","The main experiment item","yes","FlankerTask.osexp","/Users/emmaleemorgan/Desktop","no","mono","no","18","no","white","no","yes","768","legacy","40","79","/Users/emmaleemorgan/Desktop/EM-subject-1, f, 32.csv","legacy","Kafkaesque Koffka","3.2.5","0","h","NA","h","h","NA","h","402","NA","564","40857","NA","402","2","legacy","1024","2","48000","-16","experiment","HHHHH","1","odd","3322","180546","NA","223967","231259","NA","249447","248374","2749","139688","NA","249559","249963","249437","249559","2732","Flanker Task","112","56117","121","yes","1024"
"92.6229508197","92.6229508197","463.606557377","463.606557377","black","legacy","legacy","legacy","0","Incongruent","uniform","1","undefined","1","s","0","0","0","121","121","0","121","121","0","0","0","121","121","121","121","0","Mon Sep  3 13:45:17 2018","600","The main experiment item","yes","FlankerTask.osexp","/Users/emmaleemorgan/Desktop","no","mono","no","18","no","white","no","yes","768","legacy","41","79","/Users/emmaleemorgan/Desktop/EM-subject-1, f, 32.csv","legacy","Kafkaesque Koffka","3.2.5","0","s","NA","h","h","NA","s","443","NA","564","40857","NA","443","2","legacy","1024","2","48000","-16","experiment","HHSHH","1","odd","3322","180546","NA","223967","231259","NA","251042","249976","2749","139688","NA","251154","251599","251032","251153","2732","Flanker Task","113","56560","122","yes","1024"
"92.6829268293","92.6829268293","463.739837398","463.739837398","black","legacy","legacy","legacy","0","Incongruent","uniform","1","undefined","1","s","0","0","0","122","122","0","122","122","0","0","0","122","122","122","122","0","Mon Sep  3 13:45:17 2018","600","The main experiment item","yes","FlankerTask.osexp","/Users/emmaleemorgan/Desktop","no","mono","no","18","no","white","no","yes","768","legacy","42","79","/Users/emmaleemorgan/Desktop/EM-subject-1, f, 32.csv","legacy","Kafkaesque Koffka","3.2.5","0","s","NA","h","h","NA","s","480","NA","564","40857","NA","480","2","legacy","1024","2","48000","-16","experiment","HHSHH","1","odd","3322","180546","NA","223967","231259","NA","252685","251612","2749","139688","NA","252797","253279","252675","252797","2732","Flanker Task","114","57040","123","yes","1024"
"92.7419354839","92.7419354839","463.669354839","463.669354839","black","legacy","legacy","legacy","0","Incongruent","uniform","1","undefined","1","s","0","0","0","123","123","0","123","123","0","0","0","123","123","123","123","0","Mon Sep  3 13:45:17 2018","600","The main experiment item","yes","FlankerTask.osexp","/Users/emmaleemorgan/Desktop","no","mono","no","18","no","white","no","yes","768","legacy","43","79","/Users/emmaleemorgan/Desktop/EM-subject-1, f, 32.csv","legacy","Kafkaesque Koffka","3.2.5","0","s","NA","h","h","NA","s","455","NA","564","40857","NA","455","2","legacy","1024","2","48000","-16","experiment","HHSHH","1","odd","3322","180546","NA","223967","231259","NA","254363","253292","2749","139688","NA","254478","254935","254354","254477","2732","Flanker Task","115","57495","124","yes","1024"
