condition,acc,accuracy,average_response_time,avg_rt,background,canvas_backend,clock_backend,color_backend,compensation,coordinates,correct,correct_instruction1,correct_keyboard_response,correct_response,count_Block1,count_Block2,count_Block3,count_ISI,count_Stimulus,count_errorfeedback,count_experiment,count_faster,count_finish,count_fixation,count_instruction1,count_instruction2,count_instruction3,count_keyboard_response,count_logger,count_sequence,datetime,deadline,description,disable_garbage_collection,experiment_file,experiment_path,font_bold,font_family,font_italic,font_size,font_underline,foreground,form_clicks,fullscreen,height,keyboard_backend,live_row,live_row_Block1,logfile,mouse_backend,opensesame_codename,opensesame_version,repeat_cycle,response,response_finish,response_instruction1,response_instruction2,response_instruction3,response_keyboard_response,response_time,response_time_finish,response_time_instruction1,response_time_instruction2,response_time_instruction3,response_time_keyboard_response,round_decimals,sampler_backend,sound_buf_size,sound_channels,sound_freq,sound_sample_size,start,stimulus,subject_nr,subject_parity,time_Block1,time_Block2,time_Block3,time_ISI,time_Stimulus,time_errorfeedback,time_experiment,time_faster,time_finish,time_fixation,time_instruction1,time_instruction2,time_instruction3,time_keyboard_response,time_logger,time_sequence,title,total_correct,total_response_time,total_responses,uniform_coordinates,width
Congruent,100,100,558,558,black,legacy,legacy,legacy,0,uniform,1,undefined,1,s,0,0,0,0,0,0,0,0,0,0,0,0,0,0,0,0,Sun Sep  9 20:33:43 2018,1500,The main experiment item,yes,FlankerTask.osexp,/Users/hannahrae97/Desktop,no,mono,no,18,no,white,no,yes,768,legacy,0,0,/Users/hannahrae97/Desktop/CTsubject-2.csv,legacy,Kafkaesque Koffka,3.2.5,0,s,NA,s,NA,NA,s,558,NA,3894,NA,NA,558,2,legacy,1024,2,48000,-16,experiment,SSSSS,2,even,7410,NA,NA,NA,7639,NA,3490,NA,NA,7531,3503,NA,NA,7639,8198,7523,Flanker Task,1,558,1,yes,1024
incongruent,100,100,654,654,black,legacy,legacy,legacy,0,uniform,1,undefined,1,s,0,0,0,1,1,1,0,1,0,1,0,0,0,1,1,1,Sun Sep  9 20:33:43 2018,1500,The main experiment item,yes,FlankerTask.osexp,/Users/hannahrae97/Desktop,no,mono,no,18,no,white,no,yes,768,legacy,1,1,/Users/hannahrae97/Desktop/CTsubject-2.csv,legacy,Kafkaesque Koffka,3.2.5,0,s,NA,s,NA,NA,s,750,NA,3894,NA,NA,750,2,legacy,1024,2,48000,-16,experiment,HHSHH,2,even,7410,NA,NA,8216,9438,NA,3490,NA,NA,9328,3503,NA,NA,9438,10189,9319,Flanker Task,2,1308,2,yes,1024
incongruent,100,100,614.3333333,614.3333333,black,legacy,legacy,legacy,0,uniform,1,undefined,1,s,0,0,0,2,2,2,0,2,0,2,0,0,0,2,2,2,Sun Sep  9 20:33:43 2018,1500,The main experiment item,yes,FlankerTask.osexp,/Users/hannahrae97/Desktop,no,mono,no,18,no,white,no,yes,768,legacy,2,2,/Users/hannahrae97/Desktop/CTsubject-2.csv,legacy,Kafkaesque Koffka,3.2.5,0,s,NA,s,NA,NA,s,535,NA,3894,NA,NA,535,2,legacy,1024,2,48000,-16,experiment,HHSHH,2,even,7410,NA,NA,10200,11410,NA,3490,NA,NA,11302,3503,NA,NA,11410,11946,11293,Flanker Task,3,1843,3,yes,1024
congruent,100,100,592.75,592.75,black,legacy,legacy,legacy,0,uniform,1,undefined,1,h,0,0,0,3,3,3,0,3,0,3,0,0,0,3,3,3,Sun Sep  9 20:33:43 2018,1500,The main experiment item,yes,FlankerTask.osexp,/Users/hannahrae97/Desktop,no,mono,no,18,no,white,no,yes,768,legacy,3,3,/Users/hannahrae97/Desktop/CTsubject-2.csv,legacy,Kafkaesque Koffka,3.2.5,0,h,NA,s,NA,NA,h,528,NA,3894,NA,NA,528,2,legacy,1024,2,48000,-16,experiment,HHHHH,2,even,7410,NA,NA,11958,13164,NA,3490,NA,NA,13056,3503,NA,NA,13164,13693,13048,Flanker Task,4,2371,4,yes,1024
congruent,100,100,586.4,586.4,black,legacy,legacy,legacy,0,uniform,1,undefined,1,h,0,0,0,4,4,4,0,4,0,4,0,0,0,4,4,4,Sun Sep  9 20:33:43 2018,1500,The main experiment item,yes,FlankerTask.osexp,/Users/hannahrae97/Desktop,no,mono,no,18,no,white,no,yes,768,legacy,4,4,/Users/hannahrae97/Desktop/CTsubject-2.csv,legacy,Kafkaesque Koffka,3.2.5,0,h,NA,s,NA,NA,h,561,NA,3894,NA,NA,561,2,legacy,1024,2,48000,-16,experiment,HHHHH,2,even,7410,NA,NA,13704,14913,NA,3490,NA,NA,14805,3503,NA,NA,14913,15475,14797,Flanker Task,5,2932,5,yes,1024
Congruent,100,100,573.3333333,573.3333333,black,legacy,legacy,legacy,0,uniform,1,undefined,1,s,0,0,0,5,5,5,0,5,0,5,0,0,0,5,5,5,Sun Sep  9 20:33:43 2018,1500,The main experiment item,yes,FlankerTask.osexp,/Users/hannahrae97/Desktop,no,mono,no,18,no,white,no,yes,768,legacy,5,5,/Users/hannahrae97/Desktop/CTsubject-2.csv,legacy,Kafkaesque Koffka,3.2.5,0,s,NA,s,NA,NA,s,508,NA,3894,NA,NA,508,2,legacy,1024,2,48000,-16,experiment,SSSSS,2,even,7410,NA,NA,15487,16701,NA,3490,NA,NA,16593,3503,NA,NA,16701,17210,16583,Flanker Task,6,3440,6,yes,1024
incongruent,100,100,605.5714286,605.5714286,black,legacy,legacy,legacy,0,uniform,1,undefined,1,h,0,0,0,6,6,6,0,6,0,6,0,0,0,6,6,6,Sun Sep  9 20:33:43 2018,1500,The main experiment item,yes,FlankerTask.osexp,/Users/hannahrae97/Desktop,no,mono,no,18,no,white,no,yes,768,legacy,6,6,/Users/hannahrae97/Desktop/CTsubject-2.csv,legacy,Kafkaesque Koffka,3.2.5,0,h,NA,s,NA,NA,h,799,NA,3894,NA,NA,799,2,legacy,1024,2,48000,-16,experiment,SSHSS,2,even,7410,NA,NA,17223,18432,NA,3490,NA,NA,18324,3503,NA,NA,18432,19232,18315,Flanker Task,7,4239,7,yes,1024
congruent,100,100,585,585,black,legacy,legacy,legacy,0,uniform,1,undefined,1,h,0,0,0,7,7,7,0,7,0,7,0,0,0,7,7,7,Sun Sep  9 20:33:43 2018,1500,The main experiment item,yes,FlankerTask.osexp,/Users/hannahrae97/Desktop,no,mono,no,18,no,white,no,yes,768,legacy,7,7,/Users/hannahrae97/Desktop/CTsubject-2.csv,legacy,Kafkaesque Koffka,3.2.5,0,h,NA,s,NA,NA,h,441,NA,3894,NA,NA,441,2,legacy,1024,2,48000,-16,experiment,HHHHH,2,even,7410,NA,NA,19245,20460,NA,3490,NA,NA,20348,3503,NA,NA,20460,20902,20339,Flanker Task,8,4680,8,yes,1024
Congruent,100,100,567.4444444,567.4444444,black,legacy,legacy,legacy,0,uniform,1,undefined,1,s,0,0,0,8,8,8,0,8,0,8,0,0,0,8,8,8,Sun Sep  9 20:33:43 2018,1500,The main experiment item,yes,FlankerTask.osexp,/Users/hannahrae97/Desktop,no,mono,no,18,no,white,no,yes,768,legacy,8,8,/Users/hannahrae97/Desktop/CTsubject-2.csv,legacy,Kafkaesque Koffka,3.2.5,0,s,NA,s,NA,NA,s,427,NA,3894,NA,NA,427,2,legacy,1024,2,48000,-16,experiment,SSSSS,2,even,7410,NA,NA,20919,22123,NA,3490,NA,NA,22015,3503,NA,NA,22123,22551,22007,Flanker Task,9,5107,9,yes,1024
Congruent,100,100,549.8,549.8,black,legacy,legacy,legacy,0,uniform,1,undefined,1,s,0,0,0,9,9,9,0,9,0,9,0,0,0,9,9,9,Sun Sep  9 20:33:43 2018,1500,The main experiment item,yes,FlankerTask.osexp,/Users/hannahrae97/Desktop,no,mono,no,18,no,white,no,yes,768,legacy,9,9,/Users/hannahrae97/Desktop/CTsubject-2.csv,legacy,Kafkaesque Koffka,3.2.5,0,s,NA,s,NA,NA,s,391,NA,3894,NA,NA,391,2,legacy,1024,2,48000,-16,experiment,SSSSS,2,even,7410,NA,NA,22563,23768,NA,3490,NA,NA,23660,3503,NA,NA,23768,24160,23651,Flanker Task,10,5498,10,yes,1024
incongruent,100,100,539.8181818,539.8181818,black,legacy,legacy,legacy,0,uniform,1,undefined,1,h,0,0,0,10,10,10,0,10,0,10,0,0,0,10,10,10,Sun Sep  9 20:33:43 2018,1500,The main experiment item,yes,FlankerTask.osexp,/Users/hannahrae97/Desktop,no,mono,no,18,no,white,no,yes,768,legacy,10,10,/Users/hannahrae97/Desktop/CTsubject-2.csv,legacy,Kafkaesque Koffka,3.2.5,0,h,NA,s,NA,NA,h,440,NA,3894,NA,NA,440,2,legacy,1024,2,48000,-16,experiment,SSHSS,2,even,7410,NA,NA,24171,25377,NA,3490,NA,NA,25269,3503,NA,NA,25377,25818,25260,Flanker Task,11,5938,11,yes,1024
Congruent,100,100,541.5,541.5,black,legacy,legacy,legacy,0,uniform,1,undefined,1,s,0,0,0,11,11,11,0,11,0,11,0,0,0,11,11,11,Sun Sep  9 20:33:43 2018,1500,The main experiment item,yes,FlankerTask.osexp,/Users/hannahrae97/Desktop,no,mono,no,18,no,white,no,yes,768,legacy,11,11,/Users/hannahrae97/Desktop/CTsubject-2.csv,legacy,Kafkaesque Koffka,3.2.5,0,s,NA,s,NA,NA,s,560,NA,3894,NA,NA,560,2,legacy,1024,2,48000,-16,experiment,SSSSS,2,even,7410,NA,NA,25830,27035,NA,3490,NA,NA,26927,3503,NA,NA,27035,27596,26919,Flanker Task,12,6498,12,yes,1024
congruent,100,100,533,533,black,legacy,legacy,legacy,0,uniform,1,undefined,1,h,0,0,0,12,12,12,0,12,0,12,0,0,0,12,12,12,Sun Sep  9 20:33:43 2018,1500,The main experiment item,yes,FlankerTask.osexp,/Users/hannahrae97/Desktop,no,mono,no,18,no,white,no,yes,768,legacy,12,12,/Users/hannahrae97/Desktop/CTsubject-2.csv,legacy,Kafkaesque Koffka,3.2.5,0,h,NA,s,NA,NA,h,431,NA,3894,NA,NA,431,2,legacy,1024,2,48000,-16,experiment,HHHHH,2,even,7410,NA,NA,27607,28812,NA,3490,NA,NA,28704,3503,NA,NA,28812,29244,28696,Flanker Task,13,6929,13,yes,1024
Congruent,100,100,535.5,535.5,black,legacy,legacy,legacy,0,uniform,1,undefined,1,s,0,0,0,13,13,13,0,13,0,13,0,0,0,13,13,13,Sun Sep  9 20:33:43 2018,1500,The main experiment item,yes,FlankerTask.osexp,/Users/hannahrae97/Desktop,no,mono,no,18,no,white,no,yes,768,legacy,13,13,/Users/hannahrae97/Desktop/CTsubject-2.csv,legacy,Kafkaesque Koffka,3.2.5,0,s,NA,s,NA,NA,s,568,NA,3894,NA,NA,568,2,legacy,1024,2,48000,-16,experiment,SSSSS,2,even,7410,NA,NA,29256,30472,NA,3490,NA,NA,30364,3503,NA,NA,30472,31041,30356,Flanker Task,14,7497,14,yes,1024
incongruent,100,100,540.4666667,540.4666667,black,legacy,legacy,legacy,0,uniform,1,undefined,1,s,0,0,0,14,14,14,0,14,0,14,0,0,0,14,14,14,Sun Sep  9 20:33:43 2018,1500,The main experiment item,yes,FlankerTask.osexp,/Users/hannahrae97/Desktop,no,mono,no,18,no,white,no,yes,768,legacy,14,14,/Users/hannahrae97/Desktop/CTsubject-2.csv,legacy,Kafkaesque Koffka,3.2.5,0,s,NA,s,NA,NA,s,610,NA,3894,NA,NA,610,2,legacy,1024,2,48000,-16,experiment,HHSHH,2,even,7410,NA,NA,31053,32263,NA,3490,NA,NA,32155,3503,NA,NA,32263,32874,32146,Flanker Task,15,8107,15,yes,1024
incongruent,100,100,534.5,534.5,black,legacy,legacy,legacy,0,uniform,1,undefined,1,h,0,0,0,15,15,15,0,15,0,15,0,0,0,15,15,15,Sun Sep  9 20:33:43 2018,1500,The main experiment item,yes,FlankerTask.osexp,/Users/hannahrae97/Desktop,no,mono,no,18,no,white,no,yes,768,legacy,15,15,/Users/hannahrae97/Desktop/CTsubject-2.csv,legacy,Kafkaesque Koffka,3.2.5,0,h,NA,s,NA,NA,h,445,NA,3894,NA,NA,445,2,legacy,1024,2,48000,-16,experiment,SSHSS,2,even,7410,NA,NA,32885,34092,NA,3490,NA,NA,33983,3503,NA,NA,34092,34538,33975,Flanker Task,16,8552,16,yes,1024
incongruent,100,100,538.5294118,538.5294118,black,legacy,legacy,legacy,0,uniform,1,undefined,1,h,0,0,0,16,16,16,0,16,0,16,0,0,0,16,16,16,Sun Sep  9 20:33:43 2018,1500,The main experiment item,yes,FlankerTask.osexp,/Users/hannahrae97/Desktop,no,mono,no,18,no,white,no,yes,768,legacy,16,16,/Users/hannahrae97/Desktop/CTsubject-2.csv,legacy,Kafkaesque Koffka,3.2.5,0,h,NA,s,NA,NA,h,603,NA,3894,NA,NA,603,2,legacy,1024,2,48000,-16,experiment,SSHSS,2,even,7410,NA,NA,34550,35758,NA,3490,NA,NA,35650,3503,NA,NA,35758,36363,35641,Flanker Task,17,9155,17,yes,1024
incongruent,100,100,543.8333333,543.8333333,black,legacy,legacy,legacy,0,uniform,1,undefined,1,h,0,0,0,17,17,17,0,17,0,17,0,0,0,17,17,17,Sun Sep  9 20:33:43 2018,1500,The main experiment item,yes,FlankerTask.osexp,/Users/hannahrae97/Desktop,no,mono,no,18,no,white,no,yes,768,legacy,17,17,/Users/hannahrae97/Desktop/CTsubject-2.csv,legacy,Kafkaesque Koffka,3.2.5,0,h,NA,s,NA,NA,h,634,NA,3894,NA,NA,634,2,legacy,1024,2,48000,-16,experiment,SSHSS,2,even,7410,NA,NA,36377,37586,NA,3490,NA,NA,37478,3503,NA,NA,37586,38221,37469,Flanker Task,18,9789,18,yes,1024
congruent,100,100,538.6842105,538.6842105,black,legacy,legacy,legacy,0,uniform,1,undefined,1,h,0,0,0,18,18,18,0,18,0,18,0,0,0,18,18,18,Sun Sep  9 20:33:43 2018,1500,The main experiment item,yes,FlankerTask.osexp,/Users/hannahrae97/Desktop,no,mono,no,18,no,white,no,yes,768,legacy,18,18,/Users/hannahrae97/Desktop/CTsubject-2.csv,legacy,Kafkaesque Koffka,3.2.5,0,h,NA,s,NA,NA,h,446,NA,3894,NA,NA,446,2,legacy,1024,2,48000,-16,experiment,HHHHH,2,even,7410,NA,NA,38233,39439,NA,3490,NA,NA,39331,3503,NA,NA,39439,39886,39323,Flanker Task,19,10235,19,yes,1024
incongruent,100,100,540.1,540.1,black,legacy,legacy,legacy,0,uniform,1,undefined,1,s,0,0,0,19,19,19,0,19,0,19,0,0,0,19,19,19,Sun Sep  9 20:33:43 2018,1500,The main experiment item,yes,FlankerTask.osexp,/Users/hannahrae97/Desktop,no,mono,no,18,no,white,no,yes,768,legacy,19,19,/Users/hannahrae97/Desktop/CTsubject-2.csv,legacy,Kafkaesque Koffka,3.2.5,0,s,NA,s,NA,NA,s,567,NA,3894,NA,NA,567,2,legacy,1024,2,48000,-16,experiment,HHSHH,2,even,7410,NA,NA,39900,41105,NA,3490,NA,NA,40997,3503,NA,NA,41105,41673,40988,Flanker Task,20,10802,20,yes,1024
incongruent,100,100,530,530,black,legacy,legacy,legacy,0,uniform,1,undefined,1,s,0,0,0,20,20,20,0,20,0,20,0,0,0,20,20,20,Sun Sep  9 20:33:43 2018,1500,The main experiment item,yes,FlankerTask.osexp,/Users/hannahrae97/Desktop,no,mono,no,18,no,white,no,yes,768,legacy,20,20,/Users/hannahrae97/Desktop/CTsubject-2.csv,legacy,Kafkaesque Koffka,3.2.5,0,s,NA,s,NA,NA,s,328,NA,3894,NA,NA,328,2,legacy,1024,2,48000,-16,experiment,HHSHH,2,even,7410,NA,NA,41685,42891,NA,3490,NA,NA,42783,3503,NA,NA,42891,43220,42775,Flanker Task,21,11130,21,yes,1024
incongruent,95.45454545,95.45454545,520.1818182,520.1818182,black,legacy,legacy,legacy,0,uniform,0,undefined,0,h,0,0,0,21,21,21,0,21,0,21,0,0,0,21,21,21,Sun Sep  9 20:33:43 2018,1500,The main experiment item,yes,FlankerTask.osexp,/Users/hannahrae97/Desktop,no,mono,no,18,no,white,no,yes,768,legacy,21,21,/Users/hannahrae97/Desktop/CTsubject-2.csv,legacy,Kafkaesque Koffka,3.2.5,0,s,NA,s,NA,NA,s,314,NA,3894,NA,NA,314,2,legacy,1024,2,48000,-16,experiment,SSHSS,2,even,7410,NA,NA,43232,44438,NA,3490,NA,NA,44330,3503,NA,NA,44438,44753,44321,Flanker Task,21,11444,22,yes,1024
incongruent,95.65217391,95.65217391,532.3478261,532.3478261,black,legacy,legacy,legacy,0,uniform,1,undefined,1,h,0,0,0,22,22,22,0,22,0,22,0,0,0,22,22,22,Sun Sep  9 20:33:43 2018,1500,The main experiment item,yes,FlankerTask.osexp,/Users/hannahrae97/Desktop,no,mono,no,18,no,white,no,yes,768,legacy,22,22,/Users/hannahrae97/Desktop/CTsubject-2.csv,legacy,Kafkaesque Koffka,3.2.5,0,h,NA,s,NA,NA,h,800,NA,3894,NA,NA,800,2,legacy,1024,2,48000,-16,experiment,SSHSS,2,even,7410,NA,NA,45277,46485,44765,3490,NA,NA,46375,3503,NA,NA,46485,47286,46367,Flanker Task,22,12244,23,yes,1024
congruent,95.83333333,95.83333333,528.4166667,528.4166667,black,legacy,legacy,legacy,0,uniform,1,undefined,1,h,0,0,0,23,23,23,0,23,0,23,0,0,0,23,23,23,Sun Sep  9 20:33:43 2018,1500,The main experiment item,yes,FlankerTask.osexp,/Users/hannahrae97/Desktop,no,mono,no,18,no,white,no,yes,768,legacy,23,23,/Users/hannahrae97/Desktop/CTsubject-2.csv,legacy,Kafkaesque Koffka,3.2.5,0,h,NA,s,NA,NA,h,438,NA,3894,NA,NA,438,2,legacy,1024,2,48000,-16,experiment,HHHHH,2,even,7410,NA,NA,47298,48505,44765,3490,NA,NA,48397,3503,NA,NA,48505,48945,48387,Flanker Task,23,12682,24,yes,1024
congruent,96,96,527.68,527.68,black,legacy,legacy,legacy,0,uniform,1,undefined,1,h,0,0,0,24,24,24,0,24,0,24,0,0,0,24,24,24,Sun Sep  9 20:33:43 2018,1500,The main experiment item,yes,FlankerTask.osexp,/Users/hannahrae97/Desktop,no,mono,no,18,no,white,no,yes,768,legacy,24,24,/Users/hannahrae97/Desktop/CTsubject-2.csv,legacy,Kafkaesque Koffka,3.2.5,0,h,NA,s,NA,NA,h,510,NA,3894,NA,NA,510,2,legacy,1024,2,48000,-16,experiment,HHHHH,2,even,7410,NA,NA,48958,50162,44765,3490,NA,NA,50054,3503,NA,NA,50162,50673,50046,Flanker Task,24,13192,25,yes,1024
Congruent,96.15384615,96.15384615,524.2307692,524.2307692,black,legacy,legacy,legacy,0,uniform,1,undefined,1,s,0,0,0,25,25,25,0,25,0,25,0,0,0,25,25,25,Sun Sep  9 20:33:43 2018,1500,The main experiment item,yes,FlankerTask.osexp,/Users/hannahrae97/Desktop,no,mono,no,18,no,white,no,yes,768,legacy,25,25,/Users/hannahrae97/Desktop/CTsubject-2.csv,legacy,Kafkaesque Koffka,3.2.5,0,s,NA,s,NA,NA,s,438,NA,3894,NA,NA,438,2,legacy,1024,2,48000,-16,experiment,SSSSS,2,even,7410,NA,NA,50686,51893,44765,3490,NA,NA,51785,3503,NA,NA,51893,52332,51776,Flanker Task,25,13630,26,yes,1024
Congruent,96.2962963,96.2962963,521.1481481,521.1481481,black,legacy,legacy,legacy,0,uniform,1,undefined,1,s,0,0,0,26,26,26,0,26,0,26,0,0,0,26,26,26,Sun Sep  9 20:33:43 2018,1500,The main experiment item,yes,FlankerTask.osexp,/Users/hannahrae97/Desktop,no,mono,no,18,no,white,no,yes,768,legacy,26,26,/Users/hannahrae97/Desktop/CTsubject-2.csv,legacy,Kafkaesque Koffka,3.2.5,0,s,NA,s,NA,NA,s,441,NA,3894,NA,NA,441,2,legacy,1024,2,48000,-16,experiment,SSSSS,2,even,7410,NA,NA,52344,53553,44765,3490,NA,NA,53444,3503,NA,NA,53553,53995,53436,Flanker Task,26,14071,27,yes,1024
congruent,96.42857143,96.42857143,518.25,518.25,black,legacy,legacy,legacy,0,uniform,1,undefined,1,h,0,0,0,27,27,27,0,27,0,27,0,0,0,27,27,27,Sun Sep  9 20:33:43 2018,1500,The main experiment item,yes,FlankerTask.osexp,/Users/hannahrae97/Desktop,no,mono,no,18,no,white,no,yes,768,legacy,27,27,/Users/hannahrae97/Desktop/CTsubject-2.csv,legacy,Kafkaesque Koffka,3.2.5,0,h,NA,s,NA,NA,h,440,NA,3894,NA,NA,440,2,legacy,1024,2,48000,-16,experiment,HHHHH,2,even,7410,NA,NA,54006,55212,44765,3490,NA,NA,55104,3503,NA,NA,55212,55653,55095,Flanker Task,27,14511,28,yes,1024
congruent,96.55172414,96.55172414,516.7241379,516.7241379,black,legacy,legacy,legacy,0,uniform,1,undefined,1,h,0,0,0,28,28,28,0,28,0,28,0,0,0,28,28,28,Sun Sep  9 20:33:43 2018,1500,The main experiment item,yes,FlankerTask.osexp,/Users/hannahrae97/Desktop,no,mono,no,18,no,white,no,yes,768,legacy,28,28,/Users/hannahrae97/Desktop/CTsubject-2.csv,legacy,Kafkaesque Koffka,3.2.5,0,h,NA,s,NA,NA,h,474,NA,3894,NA,NA,474,2,legacy,1024,2,48000,-16,experiment,HHHHH,2,even,7410,NA,NA,55666,56878,44765,3490,NA,NA,56770,3503,NA,NA,56878,57353,56762,Flanker Task,28,14985,29,yes,1024
Congruent,96.66666667,96.66666667,513.5333333,513.5333333,black,legacy,legacy,legacy,0,uniform,1,undefined,1,s,0,0,0,29,29,29,0,29,0,29,0,0,0,29,29,29,Sun Sep  9 20:33:43 2018,1500,The main experiment item,yes,FlankerTask.osexp,/Users/hannahrae97/Desktop,no,mono,no,18,no,white,no,yes,768,legacy,29,29,/Users/hannahrae97/Desktop/CTsubject-2.csv,legacy,Kafkaesque Koffka,3.2.5,0,s,NA,s,NA,NA,s,421,NA,3894,NA,NA,421,2,legacy,1024,2,48000,-16,experiment,SSSSS,2,even,7410,NA,NA,57366,58577,44765,3490,NA,NA,58468,3503,NA,NA,58578,59000,58460,Flanker Task,29,15406,30,yes,1024
congruent,96.77419355,96.77419355,511.7741935,511.7741935,black,legacy,legacy,legacy,0,uniform,1,undefined,1,h,0,0,0,30,30,30,0,30,0,30,0,0,0,30,30,30,Sun Sep  9 20:33:43 2018,1500,The main experiment item,yes,FlankerTask.osexp,/Users/hannahrae97/Desktop,no,mono,no,18,no,white,no,yes,768,legacy,30,30,/Users/hannahrae97/Desktop/CTsubject-2.csv,legacy,Kafkaesque Koffka,3.2.5,0,h,NA,s,NA,NA,h,459,NA,3894,NA,NA,459,2,legacy,1024,2,48000,-16,experiment,HHHHH,2,even,7410,NA,NA,59013,60220,44765,3490,NA,NA,60112,3503,NA,NA,60220,60680,60103,Flanker Task,30,15865,31,yes,1024
Congruent,96.875,96.875,509.0625,509.0625,black,legacy,legacy,legacy,0,uniform,1,undefined,1,s,0,0,0,31,31,31,0,31,0,31,0,0,0,31,31,31,Sun Sep  9 20:33:43 2018,1500,The main experiment item,yes,FlankerTask.osexp,/Users/hannahrae97/Desktop,no,mono,no,18,no,white,no,yes,768,legacy,31,31,/Users/hannahrae97/Desktop/CTsubject-2.csv,legacy,Kafkaesque Koffka,3.2.5,0,s,NA,s,NA,NA,s,425,NA,3894,NA,NA,425,2,legacy,1024,2,48000,-16,experiment,SSSSS,2,even,7410,NA,NA,60692,61898,44765,3490,NA,NA,61790,3503,NA,NA,61898,62324,61782,Flanker Task,31,16290,32,yes,1024
incongruent,96.96969697,96.96969697,508.6060606,508.6060606,black,legacy,legacy,legacy,0,uniform,1,undefined,1,s,0,0,0,32,32,32,0,32,0,32,0,0,0,32,32,32,Sun Sep  9 20:33:43 2018,1500,The main experiment item,yes,FlankerTask.osexp,/Users/hannahrae97/Desktop,no,mono,no,18,no,white,no,yes,768,legacy,32,32,/Users/hannahrae97/Desktop/CTsubject-2.csv,legacy,Kafkaesque Koffka,3.2.5,0,s,NA,s,NA,NA,s,494,NA,3894,NA,NA,494,2,legacy,1024,2,48000,-16,experiment,HHSHH,2,even,7410,NA,NA,62336,63547,44765,3490,NA,NA,63437,3503,NA,NA,63547,64043,63429,Flanker Task,32,16784,33,yes,1024
incongruent,97.05882353,97.05882353,504.6764706,504.6764706,black,legacy,legacy,legacy,0,uniform,1,undefined,1,s,0,0,0,33,33,33,0,33,0,33,0,0,0,33,33,33,Sun Sep  9 20:33:43 2018,1500,The main experiment item,yes,FlankerTask.osexp,/Users/hannahrae97/Desktop,no,mono,no,18,no,white,no,yes,768,legacy,33,33,/Users/hannahrae97/Desktop/CTsubject-2.csv,legacy,Kafkaesque Koffka,3.2.5,0,s,NA,s,NA,NA,s,375,NA,3894,NA,NA,375,2,legacy,1024,2,48000,-16,experiment,HHSHH,2,even,7410,NA,NA,64055,65263,44765,3490,NA,NA,65155,3503,NA,NA,65263,65639,65146,Flanker Task,33,17159,34,yes,1024
Congruent,94.28571429,94.28571429,502.5428571,502.5428571,black,legacy,legacy,legacy,0,uniform,0,undefined,0,s,0,0,0,34,34,34,0,34,0,34,0,0,0,34,34,34,Sun Sep  9 20:33:43 2018,1500,The main experiment item,yes,FlankerTask.osexp,/Users/hannahrae97/Desktop,no,mono,no,18,no,white,no,yes,768,legacy,34,34,/Users/hannahrae97/Desktop/CTsubject-2.csv,legacy,Kafkaesque Koffka,3.2.5,0,h,NA,s,NA,NA,h,430,NA,3894,NA,NA,430,2,legacy,1024,2,48000,-16,experiment,SSSSS,2,even,7410,NA,NA,65651,66856,44765,3490,NA,NA,66748,3503,NA,NA,66856,67287,66739,Flanker Task,33,17589,35,yes,1024
incongruent,94.44444444,94.44444444,503.0277778,503.0277778,black,legacy,legacy,legacy,0,uniform,1,undefined,1,s,0,0,0,35,35,35,0,35,0,35,0,0,0,35,35,35,Sun Sep  9 20:33:43 2018,1500,The main experiment item,yes,FlankerTask.osexp,/Users/hannahrae97/Desktop,no,mono,no,18,no,white,no,yes,768,legacy,35,35,/Users/hannahrae97/Desktop/CTsubject-2.csv,legacy,Kafkaesque Koffka,3.2.5,0,s,NA,s,NA,NA,s,520,NA,3894,NA,NA,520,2,legacy,1024,2,48000,-16,experiment,HHSHH,2,even,7410,NA,NA,67808,69017,67300,3490,NA,NA,68909,3503,NA,NA,69017,69538,68901,Flanker Task,34,18109,36,yes,1024
incongruent,94.59459459,94.59459459,510.4324324,510.4324324,black,legacy,legacy,legacy,0,uniform,1,undefined,1,h,0,0,0,36,36,36,0,36,0,36,0,0,0,36,36,36,Sun Sep  9 20:33:43 2018,1500,The main experiment item,yes,FlankerTask.osexp,/Users/hannahrae97/Desktop,no,mono,no,18,no,white,no,yes,768,legacy,36,36,/Users/hannahrae97/Desktop/CTsubject-2.csv,legacy,Kafkaesque Koffka,3.2.5,0,h,NA,s,NA,NA,h,777,NA,3894,NA,NA,777,2,legacy,1024,2,48000,-16,experiment,SSHSS,2,even,7410,NA,NA,69551,70760,67300,3490,NA,NA,70652,3503,NA,NA,70760,71538,70643,Flanker Task,35,18886,37,yes,1024
incongruent,94.73684211,94.73684211,513.9473684,513.9473684,black,legacy,legacy,legacy,0,uniform,1,undefined,1,h,0,0,0,37,37,37,0,37,0,37,0,0,0,37,37,37,Sun Sep  9 20:33:43 2018,1500,The main experiment item,yes,FlankerTask.osexp,/Users/hannahrae97/Desktop,no,mono,no,18,no,white,no,yes,768,legacy,37,37,/Users/hannahrae97/Desktop/CTsubject-2.csv,legacy,Kafkaesque Koffka,3.2.5,0,h,NA,s,NA,NA,h,644,NA,3894,NA,NA,644,2,legacy,1024,2,48000,-16,experiment,SSHSS,2,even,7410,NA,NA,71550,72757,67300,3490,NA,NA,72649,3503,NA,NA,72757,73402,72640,Flanker Task,36,19530,38,yes,1024
Congruent,94.87179487,94.87179487,513.2307692,513.2307692,black,legacy,legacy,legacy,0,uniform,1,undefined,1,s,0,0,0,38,38,38,0,38,0,38,0,0,0,38,38,38,Sun Sep  9 20:33:43 2018,1500,The main experiment item,yes,FlankerTask.osexp,/Users/hannahrae97/Desktop,no,mono,no,18,no,white,no,yes,768,legacy,38,38,/Users/hannahrae97/Desktop/CTsubject-2.csv,legacy,Kafkaesque Koffka,3.2.5,0,s,NA,s,NA,NA,s,486,NA,3894,NA,NA,486,2,legacy,1024,2,48000,-16,experiment,SSSSS,2,even,7410,NA,NA,73414,74621,67300,3490,NA,NA,74513,3503,NA,NA,74621,75108,74504,Flanker Task,37,20016,39,yes,1024
Congruent,95,95,512.525,512.525,black,legacy,legacy,legacy,0,uniform,1,undefined,1,s,0,0,0,39,39,39,0,39,0,39,0,0,0,39,39,39,Sun Sep  9 20:33:43 2018,1500,The main experiment item,yes,FlankerTask.osexp,/Users/hannahrae97/Desktop,no,mono,no,18,no,white,no,yes,768,legacy,39,39,/Users/hannahrae97/Desktop/CTsubject-2.csv,legacy,Kafkaesque Koffka,3.2.5,0,s,NA,s,NA,NA,s,485,NA,3894,NA,NA,485,2,legacy,1024,2,48000,-16,experiment,SSSSS,2,even,7410,NA,NA,75120,76325,67300,3490,NA,NA,76217,3503,NA,NA,76325,76811,76209,Flanker Task,38,20501,40,yes,1024
incongruent,95.12195122,95.12195122,511.4390244,511.4390244,black,legacy,legacy,legacy,0,uniform,1,undefined,1,s,0,0,0,40,40,40,0,40,0,40,0,0,0,40,40,40,Sun Sep  9 20:33:43 2018,1500,The main experiment item,yes,FlankerTask.osexp,/Users/hannahrae97/Desktop,no,mono,no,18,no,white,no,yes,768,legacy,40,40,/Users/hannahrae97/Desktop/CTsubject-2.csv,legacy,Kafkaesque Koffka,3.2.5,0,s,NA,s,NA,NA,s,468,NA,3894,NA,NA,468,2,legacy,1024,2,48000,-16,experiment,HHSHH,2,even,7410,NA,NA,76823,78031,67300,3490,NA,NA,77923,3503,NA,NA,78031,78501,77915,Flanker Task,39,20969,41,yes,1024
congruent,95.23809524,95.23809524,511.5952381,511.5952381,black,legacy,legacy,legacy,0,uniform,1,undefined,1,h,0,0,0,41,41,41,0,41,0,41,0,0,0,41,41,41,Sun Sep  9 20:33:43 2018,1500,The main experiment item,yes,FlankerTask.osexp,/Users/hannahrae97/Desktop,no,mono,no,18,no,white,no,yes,768,legacy,41,41,/Users/hannahrae97/Desktop/CTsubject-2.csv,legacy,Kafkaesque Koffka,3.2.5,0,h,NA,s,NA,NA,h,518,NA,3894,NA,NA,518,2,legacy,1024,2,48000,-16,experiment,HHHHH,2,even,7410,NA,NA,78513,79719,67300,3490,NA,NA,79611,3503,NA,NA,79719,80239,79603,Flanker Task,40,21487,42,yes,1024
Congruent,95.34883721,95.34883721,510.6744186,510.6744186,black,legacy,legacy,legacy,0,uniform,1,undefined,1,s,0,0,0,42,42,42,0,42,0,42,0,0,0,42,42,42,Sun Sep  9 20:33:43 2018,1500,The main experiment item,yes,FlankerTask.osexp,/Users/hannahrae97/Desktop,no,mono,no,18,no,white,no,yes,768,legacy,42,42,/Users/hannahrae97/Desktop/CTsubject-2.csv,legacy,Kafkaesque Koffka,3.2.5,0,s,NA,s,NA,NA,s,472,NA,3894,NA,NA,472,2,legacy,1024,2,48000,-16,experiment,SSSSS,2,even,7410,NA,NA,80255,81461,67300,3490,NA,NA,81353,3503,NA,NA,81461,81934,81344,Flanker Task,41,21959,43,yes,1024
Congruent,95.45454545,95.45454545,509.2727273,509.2727273,black,legacy,legacy,legacy,0,uniform,1,undefined,1,s,0,0,0,43,43,43,0,43,0,43,0,0,0,43,43,43,Sun Sep  9 20:33:43 2018,1500,The main experiment item,yes,FlankerTask.osexp,/Users/hannahrae97/Desktop,no,mono,no,18,no,white,no,yes,768,legacy,43,43,/Users/hannahrae97/Desktop/CTsubject-2.csv,legacy,Kafkaesque Koffka,3.2.5,0,s,NA,s,NA,NA,s,449,NA,3894,NA,NA,449,2,legacy,1024,2,48000,-16,experiment,SSSSS,2,even,7410,NA,NA,81947,83153,67300,3490,NA,NA,83045,3503,NA,NA,83153,83603,83035,Flanker Task,42,22408,44,yes,1024
incongruent,93.33333333,93.33333333,509.2,509.2,black,legacy,legacy,legacy,0,uniform,0,undefined,0,s,0,0,0,44,44,44,0,44,0,44,0,0,0,44,44,44,Sun Sep  9 20:33:43 2018,1500,The main experiment item,yes,FlankerTask.osexp,/Users/hannahrae97/Desktop,no,mono,no,18,no,white,no,yes,768,legacy,44,44,/Users/hannahrae97/Desktop/CTsubject-2.csv,legacy,Kafkaesque Koffka,3.2.5,0,h,NA,s,NA,NA,h,506,NA,3894,NA,NA,506,2,legacy,1024,2,48000,-16,experiment,HHSHH,2,even,7410,NA,NA,83615,84825,67300,3490,NA,NA,84717,3503,NA,NA,84825,85333,84708,Flanker Task,42,22914,45,yes,1024
incongruent,93.47826087,93.47826087,511.3913043,511.3913043,black,legacy,legacy,legacy,0,uniform,1,undefined,1,h,0,0,0,45,45,45,0,45,0,45,0,0,0,45,45,45,Sun Sep  9 20:33:43 2018,1500,The main experiment item,yes,FlankerTask.osexp,/Users/hannahrae97/Desktop,no,mono,no,18,no,white,no,yes,768,legacy,45,45,/Users/hannahrae97/Desktop/CTsubject-2.csv,legacy,Kafkaesque Koffka,3.2.5,0,h,NA,s,NA,NA,h,610,NA,3894,NA,NA,610,2,legacy,1024,2,48000,-16,experiment,SSHSS,2,even,7410,NA,NA,85852,87059,85344,3490,NA,NA,86951,3503,NA,NA,87059,87671,86943,Flanker Task,43,23524,46,yes,1024
incongruent,93.61702128,93.61702128,511.7234043,511.7234043,black,legacy,legacy,legacy,0,uniform,1,undefined,1,h,0,0,0,46,46,46,0,46,0,46,0,0,0,46,46,46,Sun Sep  9 20:33:43 2018,1500,The main experiment item,yes,FlankerTask.osexp,/Users/hannahrae97/Desktop,no,mono,no,18,no,white,no,yes,768,legacy,46,46,/Users/hannahrae97/Desktop/CTsubject-2.csv,legacy,Kafkaesque Koffka,3.2.5,0,h,NA,s,NA,NA,h,527,NA,3894,NA,NA,527,2,legacy,1024,2,48000,-16,experiment,SSHSS,2,even,7410,NA,NA,87684,88890,85344,3490,NA,NA,88782,3503,NA,NA,88890,89419,88773,Flanker Task,44,24051,47,yes,1024
congruent,93.75,93.75,512.1666667,512.1666667,black,legacy,legacy,legacy,0,uniform,1,undefined,1,h,0,0,0,47,47,47,0,47,0,47,0,0,0,47,47,47,Sun Sep  9 20:33:43 2018,1500,The main experiment item,yes,FlankerTask.osexp,/Users/hannahrae97/Desktop,no,mono,no,18,no,white,no,yes,768,legacy,47,47,/Users/hannahrae97/Desktop/CTsubject-2.csv,legacy,Kafkaesque Koffka,3.2.5,0,h,NA,s,NA,NA,h,533,NA,3894,NA,NA,533,2,legacy,1024,2,48000,-16,experiment,HHHHH,2,even,7410,NA,NA,89430,90639,85344,3490,NA,NA,90530,3503,NA,NA,90639,91173,90522,Flanker Task,45,24584,48,yes,1024
congruent,93.87755102,93.87755102,510.4489796,510.4489796,black,legacy,legacy,legacy,0,uniform,1,undefined,1,h,0,0,0,48,48,48,0,48,0,48,0,0,0,48,48,48,Sun Sep  9 20:33:43 2018,1500,The main experiment item,yes,FlankerTask.osexp,/Users/hannahrae97/Desktop,no,mono,no,18,no,white,no,yes,768,legacy,48,48,/Users/hannahrae97/Desktop/CTsubject-2.csv,legacy,Kafkaesque Koffka,3.2.5,0,h,NA,s,NA,NA,h,428,NA,3894,NA,NA,428,2,legacy,1024,2,48000,-16,experiment,HHHHH,2,even,7410,NA,NA,91185,92396,85344,3490,NA,NA,92288,3503,NA,NA,92396,92826,92279,Flanker Task,46,25012,49,yes,1024
incongruent,94,94,510.66,510.66,black,legacy,legacy,legacy,0,uniform,1,undefined,1,h,0,0,0,49,49,49,0,49,0,49,0,0,0,49,49,49,Sun Sep  9 20:33:43 2018,1500,The main experiment item,yes,FlankerTask.osexp,/Users/hannahrae97/Desktop,no,mono,no,18,no,white,no,yes,768,legacy,49,49,/Users/hannahrae97/Desktop/CTsubject-2.csv,legacy,Kafkaesque Koffka,3.2.5,0,h,NA,s,NA,NA,h,521,NA,3894,NA,NA,521,2,legacy,1024,2,48000,-16,experiment,SSHSS,2,even,7410,NA,NA,92838,94043,85344,3490,NA,NA,93935,3503,NA,NA,94043,94565,93926,Flanker Task,47,25533,50,yes,1024
incongruent,94.11764706,94.11764706,509.5098039,509.5098039,black,legacy,legacy,legacy,0,uniform,1,undefined,1,h,0,0,0,50,50,50,0,50,0,50,0,0,0,50,50,50,Sun Sep  9 20:33:43 2018,1500,The main experiment item,yes,FlankerTask.osexp,/Users/hannahrae97/Desktop,no,mono,no,18,no,white,no,yes,768,legacy,50,50,/Users/hannahrae97/Desktop/CTsubject-2.csv,legacy,Kafkaesque Koffka,3.2.5,0,h,NA,s,NA,NA,h,452,NA,3894,NA,NA,452,2,legacy,1024,2,48000,-16,experiment,SSHSS,2,even,7410,NA,NA,94578,95792,85344,3490,NA,NA,95684,3503,NA,NA,95792,96246,95675,Flanker Task,48,25985,51,yes,1024
congruent,94.23076923,94.23076923,507,507,black,legacy,legacy,legacy,0,uniform,1,undefined,1,h,0,0,0,51,51,51,0,51,0,51,0,0,0,51,51,51,Sun Sep  9 20:33:43 2018,1500,The main experiment item,yes,FlankerTask.osexp,/Users/hannahrae97/Desktop,no,mono,no,18,no,white,no,yes,768,legacy,51,51,/Users/hannahrae97/Desktop/CTsubject-2.csv,legacy,Kafkaesque Koffka,3.2.5,0,h,NA,s,NA,NA,h,379,NA,3894,NA,NA,379,2,legacy,1024,2,48000,-16,experiment,HHHHH,2,even,7410,NA,NA,96258,97465,85344,3490,NA,NA,97357,3503,NA,NA,97465,97846,97348,Flanker Task,49,26364,52,yes,1024
incongruent,94.33962264,94.33962264,506.8490566,506.8490566,black,legacy,legacy,legacy,0,uniform,1,undefined,1,s,0,0,0,52,52,52,0,52,0,52,0,0,0,52,52,52,Sun Sep  9 20:33:43 2018,1500,The main experiment item,yes,FlankerTask.osexp,/Users/hannahrae97/Desktop,no,mono,no,18,no,white,no,yes,768,legacy,52,52,/Users/hannahrae97/Desktop/CTsubject-2.csv,legacy,Kafkaesque Koffka,3.2.5,0,s,NA,s,NA,NA,s,499,NA,3894,NA,NA,499,2,legacy,1024,2,48000,-16,experiment,HHSHH,2,even,7410,NA,NA,97857,99064,85344,3490,NA,NA,98956,3503,NA,NA,99064,99565,98948,Flanker Task,50,26863,53,yes,1024
incongruent,94.44444444,94.44444444,506.6666667,506.6666667,black,legacy,legacy,legacy,0,uniform,1,undefined,1,h,0,0,0,53,53,53,0,53,0,53,0,0,0,53,53,53,Sun Sep  9 20:33:43 2018,1500,The main experiment item,yes,FlankerTask.osexp,/Users/hannahrae97/Desktop,no,mono,no,18,no,white,no,yes,768,legacy,53,53,/Users/hannahrae97/Desktop/CTsubject-2.csv,legacy,Kafkaesque Koffka,3.2.5,0,h,NA,s,NA,NA,h,497,NA,3894,NA,NA,497,2,legacy,1024,2,48000,-16,experiment,SSHSS,2,even,7410,NA,NA,99576,100784,85344,3490,NA,NA,100676,3503,NA,NA,100784,101283,100667,Flanker Task,51,27360,54,yes,1024
congruent,94.54545455,94.54545455,503.8363636,503.8363636,black,legacy,legacy,legacy,0,uniform,1,undefined,1,h,0,0,0,54,54,54,0,54,0,54,0,0,0,54,54,54,Sun Sep  9 20:33:43 2018,1500,The main experiment item,yes,FlankerTask.osexp,/Users/hannahrae97/Desktop,no,mono,no,18,no,white,no,yes,768,legacy,54,54,/Users/hannahrae97/Desktop/CTsubject-2.csv,legacy,Kafkaesque Koffka,3.2.5,0,h,NA,s,NA,NA,h,351,NA,3894,NA,NA,351,2,legacy,1024,2,48000,-16,experiment,HHHHH,2,even,7410,NA,NA,101295,102502,85344,3490,NA,NA,102394,3503,NA,NA,102502,102854,102385,Flanker Task,52,27711,55,yes,1024
incongruent,92.85714286,92.85714286,501.6071429,501.6071429,black,legacy,legacy,legacy,0,uniform,0,undefined,0,s,0,0,0,55,55,55,0,55,0,55,0,0,0,55,55,55,Sun Sep  9 20:33:43 2018,1500,The main experiment item,yes,FlankerTask.osexp,/Users/hannahrae97/Desktop,no,mono,no,18,no,white,no,yes,768,legacy,55,55,/Users/hannahrae97/Desktop/CTsubject-2.csv,legacy,Kafkaesque Koffka,3.2.5,0,h,NA,s,NA,NA,h,379,NA,3894,NA,NA,379,2,legacy,1024,2,48000,-16,experiment,HHSHH,2,even,7410,NA,NA,102866,104071,85344,3490,NA,NA,103963,3503,NA,NA,104071,104451,103955,Flanker Task,52,28090,56,yes,1024
Congruent,92.98245614,92.98245614,502.5964912,502.5964912,black,legacy,legacy,legacy,0,uniform,1,undefined,1,s,0,0,0,56,56,56,0,56,0,56,0,0,0,56,56,56,Sun Sep  9 20:33:43 2018,1500,The main experiment item,yes,FlankerTask.osexp,/Users/hannahrae97/Desktop,no,mono,no,18,no,white,no,yes,768,legacy,56,56,/Users/hannahrae97/Desktop/CTsubject-2.csv,legacy,Kafkaesque Koffka,3.2.5,0,s,NA,s,NA,NA,s,558,NA,3894,NA,NA,558,2,legacy,1024,2,48000,-16,experiment,SSSSS,2,even,7410,NA,NA,104971,106176,104463,3490,NA,NA,106068,3503,NA,NA,106176,106736,106059,Flanker Task,53,28648,57,yes,1024
Congruent,93.10344828,93.10344828,500.7413793,500.7413793,black,legacy,legacy,legacy,0,uniform,1,undefined,1,s,0,0,0,57,57,57,0,57,0,57,0,0,0,57,57,57,Sun Sep  9 20:33:43 2018,1500,The main experiment item,yes,FlankerTask.osexp,/Users/hannahrae97/Desktop,no,mono,no,18,no,white,no,yes,768,legacy,57,57,/Users/hannahrae97/Desktop/CTsubject-2.csv,legacy,Kafkaesque Koffka,3.2.5,0,s,NA,s,NA,NA,s,395,NA,3894,NA,NA,395,2,legacy,1024,2,48000,-16,experiment,SSSSS,2,even,7410,NA,NA,106747,107956,104463,3490,NA,NA,107848,3503,NA,NA,107956,108353,107839,Flanker Task,54,29043,58,yes,1024
incongruent,93.22033898,93.22033898,500.7288136,500.7288136,black,legacy,legacy,legacy,0,uniform,1,undefined,1,s,0,0,0,58,58,58,0,58,0,58,0,0,0,58,58,58,Sun Sep  9 20:33:43 2018,1500,The main experiment item,yes,FlankerTask.osexp,/Users/hannahrae97/Desktop,no,mono,no,18,no,white,no,yes,768,legacy,58,58,/Users/hannahrae97/Desktop/CTsubject-2.csv,legacy,Kafkaesque Koffka,3.2.5,0,s,NA,s,NA,NA,s,500,NA,3894,NA,NA,500,2,legacy,1024,2,48000,-16,experiment,HHSHH,2,even,7410,NA,NA,108365,109572,104463,3490,NA,NA,109464,3503,NA,NA,109572,110074,109456,Flanker Task,55,29543,59,yes,1024
Congruent,93.33333333,93.33333333,498.7666667,498.7666667,black,legacy,legacy,legacy,0,uniform,1,undefined,1,s,0,0,0,59,59,59,0,59,0,59,0,0,0,59,59,59,Sun Sep  9 20:33:43 2018,1500,The main experiment item,yes,FlankerTask.osexp,/Users/hannahrae97/Desktop,no,mono,no,18,no,white,no,yes,768,legacy,59,59,/Users/hannahrae97/Desktop/CTsubject-2.csv,legacy,Kafkaesque Koffka,3.2.5,0,s,NA,s,NA,NA,s,383,NA,3894,NA,NA,383,2,legacy,1024,2,48000,-16,experiment,SSSSS,2,even,7410,NA,NA,110086,111294,104463,3490,NA,NA,111186,3503,NA,NA,111294,111679,111178,Flanker Task,56,29926,60,yes,1024
incongruent,93.44262295,93.44262295,498.2786885,498.2786885,black,legacy,legacy,legacy,0,uniform,1,undefined,1,s,0,0,0,60,60,60,0,60,0,60,0,0,0,60,60,60,Sun Sep  9 20:33:43 2018,1500,The main experiment item,yes,FlankerTask.osexp,/Users/hannahrae97/Desktop,no,mono,no,18,no,white,no,yes,768,legacy,60,60,/Users/hannahrae97/Desktop/CTsubject-2.csv,legacy,Kafkaesque Koffka,3.2.5,0,s,NA,s,NA,NA,s,469,NA,3894,NA,NA,469,2,legacy,1024,2,48000,-16,experiment,HHSHH,2,even,7410,NA,NA,111691,112897,104463,3490,NA,NA,112789,3503,NA,NA,112897,113368,112780,Flanker Task,57,30395,61,yes,1024
congruent,93.5483871,93.5483871,498.5645161,498.5645161,black,legacy,legacy,legacy,0,uniform,1,undefined,1,h,0,0,0,61,61,61,0,61,0,61,0,0,0,61,61,61,Sun Sep  9 20:33:43 2018,1500,The main experiment item,yes,FlankerTask.osexp,/Users/hannahrae97/Desktop,no,mono,no,18,no,white,no,yes,768,legacy,61,61,/Users/hannahrae97/Desktop/CTsubject-2.csv,legacy,Kafkaesque Koffka,3.2.5,0,h,NA,s,NA,NA,h,516,NA,3894,NA,NA,516,2,legacy,1024,2,48000,-16,experiment,HHHHH,2,even,7410,NA,NA,113379,114586,104463,3490,NA,NA,114478,3503,NA,NA,114586,115104,114469,Flanker Task,58,30911,62,yes,1024
incongruent,93.65079365,93.65079365,498.952381,498.952381,black,legacy,legacy,legacy,0,uniform,1,undefined,1,s,0,0,0,62,62,62,0,62,0,62,0,0,0,62,62,62,Sun Sep  9 20:33:43 2018,1500,The main experiment item,yes,FlankerTask.osexp,/Users/hannahrae97/Desktop,no,mono,no,18,no,white,no,yes,768,legacy,62,62,/Users/hannahrae97/Desktop/CTsubject-2.csv,legacy,Kafkaesque Koffka,3.2.5,0,s,NA,s,NA,NA,s,523,NA,3894,NA,NA,523,2,legacy,1024,2,48000,-16,experiment,HHSHH,2,even,7410,NA,NA,115115,116322,104463,3490,NA,NA,116214,3503,NA,NA,116322,116847,116205,Flanker Task,59,31434,63,yes,1024
Congruent,93.75,93.75,497.96875,497.96875,black,legacy,legacy,legacy,0,uniform,1,undefined,1,s,0,0,0,63,63,63,0,63,0,63,0,0,0,63,63,63,Sun Sep  9 20:33:43 2018,1500,The main experiment item,yes,FlankerTask.osexp,/Users/hannahrae97/Desktop,no,mono,no,18,no,white,no,yes,768,legacy,63,63,/Users/hannahrae97/Desktop/CTsubject-2.csv,legacy,Kafkaesque Koffka,3.2.5,0,s,NA,s,NA,NA,s,436,NA,3894,NA,NA,436,2,legacy,1024,2,48000,-16,experiment,SSSSS,2,even,7410,NA,NA,116862,118069,104463,3490,NA,NA,117961,3503,NA,NA,118070,118508,117952,Flanker Task,60,31870,64,yes,1024
incongruent,93.84615385,93.84615385,496.8461538,496.8461538,black,legacy,legacy,legacy,0,uniform,1,undefined,1,h,0,0,0,64,64,64,0,64,0,64,0,0,0,64,64,64,Sun Sep  9 20:33:43 2018,1500,The main experiment item,yes,FlankerTask.osexp,/Users/hannahrae97/Desktop,no,mono,no,18,no,white,no,yes,768,legacy,64,64,/Users/hannahrae97/Desktop/CTsubject-2.csv,legacy,Kafkaesque Koffka,3.2.5,0,h,NA,s,NA,NA,h,425,NA,3894,NA,NA,425,2,legacy,1024,2,48000,-16,experiment,SSHSS,2,even,7410,NA,NA,118520,119727,104463,3490,NA,NA,119619,3503,NA,NA,119727,120154,119610,Flanker Task,61,32295,65,yes,1024
incongruent,93.93939394,93.93939394,497.3939394,497.3939394,black,legacy,legacy,legacy,0,uniform,1,undefined,1,h,0,0,0,65,65,65,0,65,0,65,0,0,0,65,65,65,Sun Sep  9 20:33:43 2018,1500,The main experiment item,yes,FlankerTask.osexp,/Users/hannahrae97/Desktop,no,mono,no,18,no,white,no,yes,768,legacy,65,65,/Users/hannahrae97/Desktop/CTsubject-2.csv,legacy,Kafkaesque Koffka,3.2.5,0,h,NA,s,NA,NA,h,533,NA,3894,NA,NA,533,2,legacy,1024,2,48000,-16,experiment,SSHSS,2,even,7410,NA,NA,120165,121378,104463,3490,NA,NA,121269,3503,NA,NA,121378,121913,121260,Flanker Task,62,32828,66,yes,1024
congruent,94.02985075,94.02985075,497.8208955,497.8208955,black,legacy,legacy,legacy,0,uniform,1,undefined,1,h,0,0,0,66,66,66,0,66,0,66,0,0,0,66,66,66,Sun Sep  9 20:33:43 2018,1500,The main experiment item,yes,FlankerTask.osexp,/Users/hannahrae97/Desktop,no,mono,no,18,no,white,no,yes,768,legacy,66,66,/Users/hannahrae97/Desktop/CTsubject-2.csv,legacy,Kafkaesque Koffka,3.2.5,0,h,NA,s,NA,NA,h,526,NA,3894,NA,NA,526,2,legacy,1024,2,48000,-16,experiment,HHHHH,2,even,7410,NA,NA,121925,123142,104463,3490,NA,NA,123034,3503,NA,NA,123142,123670,123024,Flanker Task,63,33354,67,yes,1024
incongruent,94.11764706,94.11764706,496.3088235,496.3088235,black,legacy,legacy,legacy,0,uniform,1,undefined,1,h,0,0,0,67,67,67,0,67,0,67,0,0,0,67,67,67,Sun Sep  9 20:33:43 2018,1500,The main experiment item,yes,FlankerTask.osexp,/Users/hannahrae97/Desktop,no,mono,no,18,no,white,no,yes,768,legacy,67,67,/Users/hannahrae97/Desktop/CTsubject-2.csv,legacy,Kafkaesque Koffka,3.2.5,0,h,NA,s,NA,NA,h,395,NA,3894,NA,NA,395,2,legacy,1024,2,48000,-16,experiment,SSHSS,2,even,7410,NA,NA,123685,124891,104463,3490,NA,NA,124782,3503,NA,NA,124891,125288,124774,Flanker Task,64,33749,68,yes,1024
incongruent,94.20289855,94.20289855,496.2898551,496.2898551,black,legacy,legacy,legacy,0,uniform,1,undefined,1,s,0,0,0,68,68,68,0,68,0,68,0,0,0,68,68,68,Sun Sep  9 20:33:43 2018,1500,The main experiment item,yes,FlankerTask.osexp,/Users/hannahrae97/Desktop,no,mono,no,18,no,white,no,yes,768,legacy,68,68,/Users/hannahrae97/Desktop/CTsubject-2.csv,legacy,Kafkaesque Koffka,3.2.5,0,s,NA,s,NA,NA,s,495,NA,3894,NA,NA,495,2,legacy,1024,2,48000,-16,experiment,HHSHH,2,even,7410,NA,NA,125300,126510,104463,3490,NA,NA,126402,3503,NA,NA,126510,127007,126391,Flanker Task,65,34244,69,yes,1024
congruent,94.28571429,94.28571429,496.1857143,496.1857143,black,legacy,legacy,legacy,0,uniform,1,undefined,1,h,0,0,0,69,69,69,0,69,0,69,0,0,0,69,69,69,Sun Sep  9 20:33:43 2018,1500,The main experiment item,yes,FlankerTask.osexp,/Users/hannahrae97/Desktop,no,mono,no,18,no,white,no,yes,768,legacy,69,69,/Users/hannahrae97/Desktop/CTsubject-2.csv,legacy,Kafkaesque Koffka,3.2.5,0,h,NA,s,NA,NA,h,489,NA,3894,NA,NA,489,2,legacy,1024,2,48000,-16,experiment,HHHHH,2,even,7410,NA,NA,127018,128225,104463,3490,NA,NA,128116,3503,NA,NA,128225,128716,128108,Flanker Task,66,34733,70,yes,1024
Congruent,94.36619718,94.36619718,495.2394366,495.2394366,black,legacy,legacy,legacy,0,uniform,1,undefined,1,s,0,0,0,70,70,70,0,70,0,70,0,0,0,70,70,70,Sun Sep  9 20:33:43 2018,1500,The main experiment item,yes,FlankerTask.osexp,/Users/hannahrae97/Desktop,no,mono,no,18,no,white,no,yes,768,legacy,70,70,/Users/hannahrae97/Desktop/CTsubject-2.csv,legacy,Kafkaesque Koffka,3.2.5,0,s,NA,s,NA,NA,s,429,NA,3894,NA,NA,429,2,legacy,1024,2,48000,-16,experiment,SSSSS,2,even,7410,NA,NA,128727,129933,104463,3490,NA,NA,129825,3503,NA,NA,129933,130364,129816,Flanker Task,67,35162,71,yes,1024
incongruent,94.44444444,94.44444444,496.5833333,496.5833333,black,legacy,legacy,legacy,0,uniform,1,undefined,1,s,0,0,0,71,71,71,0,71,0,71,0,0,0,71,71,71,Sun Sep  9 20:33:43 2018,1500,The main experiment item,yes,FlankerTask.osexp,/Users/hannahrae97/Desktop,no,mono,no,18,no,white,no,yes,768,legacy,71,71,/Users/hannahrae97/Desktop/CTsubject-2.csv,legacy,Kafkaesque Koffka,3.2.5,0,s,NA,s,NA,NA,s,592,NA,3894,NA,NA,592,2,legacy,1024,2,48000,-16,experiment,HHSHH,2,even,7410,NA,NA,130376,131588,104463,3490,NA,NA,131480,3503,NA,NA,131588,132182,131471,Flanker Task,68,35754,72,yes,1024
congruent,94.52054795,94.52054795,494.8767123,494.8767123,black,legacy,legacy,legacy,0,uniform,1,undefined,1,h,0,0,0,72,72,72,0,72,0,72,0,0,0,72,72,72,Sun Sep  9 20:33:43 2018,1500,The main experiment item,yes,FlankerTask.osexp,/Users/hannahrae97/Desktop,no,mono,no,18,no,white,no,yes,768,legacy,72,72,/Users/hannahrae97/Desktop/CTsubject-2.csv,legacy,Kafkaesque Koffka,3.2.5,0,h,NA,s,NA,NA,h,372,NA,3894,NA,NA,372,2,legacy,1024,2,48000,-16,experiment,HHHHH,2,even,7410,NA,NA,132195,133402,104463,3490,NA,NA,133294,3503,NA,NA,133402,133776,133286,Flanker Task,69,36126,73,yes,1024
incongruent,94.59459459,94.59459459,494.9594595,494.9594595,black,legacy,legacy,legacy,0,uniform,1,undefined,1,h,0,0,0,73,73,73,0,73,0,73,0,0,0,73,73,73,Sun Sep  9 20:33:43 2018,1500,The main experiment item,yes,FlankerTask.osexp,/Users/hannahrae97/Desktop,no,mono,no,18,no,white,no,yes,768,legacy,73,73,/Users/hannahrae97/Desktop/CTsubject-2.csv,legacy,Kafkaesque Koffka,3.2.5,0,h,NA,s,NA,NA,h,501,NA,3894,NA,NA,501,2,legacy,1024,2,48000,-16,experiment,SSHSS,2,even,7410,NA,NA,133788,135003,104463,3490,NA,NA,134896,3503,NA,NA,135003,135506,134887,Flanker Task,70,36627,74,yes,1024
incongruent,94.66666667,94.66666667,495.4,495.4,black,legacy,legacy,legacy,0,uniform,1,undefined,1,h,0,0,0,74,74,74,0,74,0,74,0,0,0,74,74,74,Sun Sep  9 20:33:43 2018,1500,The main experiment item,yes,FlankerTask.osexp,/Users/hannahrae97/Desktop,no,mono,no,18,no,white,no,yes,768,legacy,74,74,/Users/hannahrae97/Desktop/CTsubject-2.csv,legacy,Kafkaesque Koffka,3.2.5,0,h,NA,s,NA,NA,h,528,NA,3894,NA,NA,528,2,legacy,1024,2,48000,-16,experiment,SSHSS,2,even,7410,NA,NA,135518,136726,104463,3490,NA,NA,136618,3503,NA,NA,136726,137256,136610,Flanker Task,71,37155,75,yes,1024
incongruent,94.73684211,94.73684211,496.0131579,496.0131579,black,legacy,legacy,legacy,0,uniform,1,undefined,1,s,0,0,0,75,75,75,0,75,0,75,0,0,0,75,75,75,Sun Sep  9 20:33:43 2018,1500,The main experiment item,yes,FlankerTask.osexp,/Users/hannahrae97/Desktop,no,mono,no,18,no,white,no,yes,768,legacy,75,75,/Users/hannahrae97/Desktop/CTsubject-2.csv,legacy,Kafkaesque Koffka,3.2.5,0,s,NA,s,NA,NA,s,542,NA,3894,NA,NA,542,2,legacy,1024,2,48000,-16,experiment,HHSHH,2,even,7410,NA,NA,137267,138483,104463,3490,NA,NA,138375,3503,NA,NA,138483,139027,138367,Flanker Task,72,37697,76,yes,1024
congruent,94.80519481,94.80519481,496.5194805,496.5194805,black,legacy,legacy,legacy,0,uniform,1,undefined,1,h,0,0,0,76,76,76,0,76,0,76,0,0,0,76,76,76,Sun Sep  9 20:33:43 2018,1500,The main experiment item,yes,FlankerTask.osexp,/Users/hannahrae97/Desktop,no,mono,no,18,no,white,no,yes,768,legacy,76,76,/Users/hannahrae97/Desktop/CTsubject-2.csv,legacy,Kafkaesque Koffka,3.2.5,0,h,NA,s,NA,NA,h,535,NA,3894,NA,NA,535,2,legacy,1024,2,48000,-16,experiment,HHHHH,2,even,7410,NA,NA,139039,140252,104463,3490,NA,NA,140144,3503,NA,NA,140253,140790,140135,Flanker Task,73,38232,77,yes,1024
incongruent,94.87179487,94.87179487,496.1923077,496.1923077,black,legacy,legacy,legacy,0,uniform,1,undefined,1,s,0,0,0,77,77,77,0,77,0,77,0,0,0,77,77,77,Sun Sep  9 20:33:43 2018,1500,The main experiment item,yes,FlankerTask.osexp,/Users/hannahrae97/Desktop,no,mono,no,18,no,white,no,yes,768,legacy,77,77,/Users/hannahrae97/Desktop/CTsubject-2.csv,legacy,Kafkaesque Koffka,3.2.5,0,s,NA,s,NA,NA,s,471,NA,3894,NA,NA,471,2,legacy,1024,2,48000,-16,experiment,HHSHH,2,even,7410,NA,NA,140803,142010,104463,3490,NA,NA,141902,3503,NA,NA,142010,142483,141893,Flanker Task,74,38703,78,yes,1024
incongruent,93.67088608,93.67088608,494.9113924,494.9113924,black,legacy,legacy,legacy,0,uniform,0,undefined,0,s,0,0,0,78,78,78,0,78,0,78,0,0,0,78,78,78,Sun Sep  9 20:33:43 2018,1500,The main experiment item,yes,FlankerTask.osexp,/Users/hannahrae97/Desktop,no,mono,no,18,no,white,no,yes,768,legacy,78,78,/Users/hannahrae97/Desktop/CTsubject-2.csv,legacy,Kafkaesque Koffka,3.2.5,0,h,NA,s,NA,NA,h,395,NA,3894,NA,NA,395,2,legacy,1024,2,48000,-16,experiment,HHSHH,2,even,7410,NA,NA,142496,143703,104463,3490,NA,NA,143595,3503,NA,NA,143703,144100,143587,Flanker Task,74,39098,79,yes,1024
incongruent,93.75,93.75,496.35,496.35,black,legacy,legacy,legacy,0,uniform,1,undefined,1,h,0,0,0,79,79,79,0,79,0,79,0,0,0,79,79,79,Sun Sep  9 20:33:43 2018,1500,The main experiment item,yes,FlankerTask.osexp,/Users/hannahrae97/Desktop,no,mono,no,18,no,white,no,yes,768,legacy,79,79,/Users/hannahrae97/Desktop/CTsubject-2.csv,legacy,Kafkaesque Koffka,3.2.5,0,h,NA,s,NA,NA,h,610,NA,3894,NA,NA,610,2,legacy,1024,2,48000,-16,experiment,SSHSS,2,even,7410,NA,NA,144620,145825,144111,3490,NA,NA,145716,3503,NA,NA,145825,146437,145708,Flanker Task,75,39708,80,yes,1024
incongruent,93.82716049,93.82716049,498,498,black,legacy,legacy,legacy,0,uniform,1,undefined,1,s,0,0,0,80,80,80,0,80,0,80,0,0,0,80,80,80,Sun Sep  9 20:33:43 2018,600,The main experiment item,yes,FlankerTask.osexp,/Users/hannahrae97/Desktop,no,mono,no,18,no,white,no,yes,768,legacy,0,79,/Users/hannahrae97/Desktop/CTsubject-2.csv,legacy,Kafkaesque Koffka,3.2.5,0,s,NA,s,h,NA,s,630,NA,3894,17968,NA,630,2,legacy,1024,2,48000,-16,experiment,HHSHH,2,even,7410,165448,NA,146448,165648,144111,3490,NA,NA,165540,3503,147478,NA,165648,166280,165532,Flanker Task,76,40338,81,yes,1024
congruent,93.90243902,93.90243902,497.3414634,497.3414634,black,legacy,legacy,legacy,0,uniform,1,undefined,1,h,0,0,0,81,81,81,0,81,0,81,0,0,0,81,81,81,Sun Sep  9 20:33:43 2018,600,The main experiment item,yes,FlankerTask.osexp,/Users/hannahrae97/Desktop,no,mono,no,18,no,white,no,yes,768,legacy,1,79,/Users/hannahrae97/Desktop/CTsubject-2.csv,legacy,Kafkaesque Koffka,3.2.5,0,h,NA,s,h,NA,h,444,NA,3894,17968,NA,444,2,legacy,1024,2,48000,-16,experiment,HHHHH,2,even,7410,165448,NA,166800,168006,144111,3490,166292,NA,167899,3503,147478,NA,168006,168452,167890,Flanker Task,77,40782,82,yes,1024
Congruent,93.97590361,93.97590361,496.1807229,496.1807229,black,legacy,legacy,legacy,0,uniform,1,undefined,1,s,0,0,0,82,82,82,0,82,0,82,0,0,0,82,82,82,Sun Sep  9 20:33:43 2018,600,The main experiment item,yes,FlankerTask.osexp,/Users/hannahrae97/Desktop,no,mono,no,18,no,white,no,yes,768,legacy,2,79,/Users/hannahrae97/Desktop/CTsubject-2.csv,legacy,Kafkaesque Koffka,3.2.5,0,s,NA,s,h,NA,s,401,NA,3894,17968,NA,401,2,legacy,1024,2,48000,-16,experiment,SSSSS,2,even,7410,165448,NA,168464,169668,144111,3490,166292,NA,169560,3503,147478,NA,169668,170071,169552,Flanker Task,78,41183,83,yes,1024
incongruent,94.04761905,94.04761905,497.2261905,497.2261905,black,legacy,legacy,legacy,0,uniform,1,undefined,1,h,0,0,0,83,83,83,0,83,0,83,0,0,0,83,83,83,Sun Sep  9 20:33:43 2018,600,The main experiment item,yes,FlankerTask.osexp,/Users/hannahrae97/Desktop,no,mono,no,18,no,white,no,yes,768,legacy,3,79,/Users/hannahrae97/Desktop/CTsubject-2.csv,legacy,Kafkaesque Koffka,3.2.5,0,h,NA,s,h,NA,h,584,NA,3894,17968,NA,584,2,legacy,1024,2,48000,-16,experiment,SSHSS,2,even,7410,165448,NA,170082,171305,144111,3490,166292,NA,171195,3503,147478,NA,171306,171892,171183,Flanker Task,79,41767,84,yes,1024
congruent,94.11764706,94.11764706,497.0235294,497.0235294,black,legacy,legacy,legacy,0,uniform,1,undefined,1,h,0,0,0,84,84,84,0,84,0,84,0,0,0,84,84,84,Sun Sep  9 20:33:43 2018,600,The main experiment item,yes,FlankerTask.osexp,/Users/hannahrae97/Desktop,no,mono,no,18,no,white,no,yes,768,legacy,4,79,/Users/hannahrae97/Desktop/CTsubject-2.csv,legacy,Kafkaesque Koffka,3.2.5,0,h,NA,s,h,NA,h,480,NA,3894,17968,NA,480,2,legacy,1024,2,48000,-16,experiment,HHHHH,2,even,7410,165448,NA,171904,173113,144111,3490,166292,NA,173004,3503,147478,NA,173113,173595,172997,Flanker Task,80,42247,85,yes,1024
incongruent,94.18604651,94.18604651,495.9069767,495.9069767,black,legacy,legacy,legacy,0,uniform,1,undefined,1,s,0,0,0,85,85,85,0,85,0,85,0,0,0,85,85,85,Sun Sep  9 20:33:43 2018,600,The main experiment item,yes,FlankerTask.osexp,/Users/hannahrae97/Desktop,no,mono,no,18,no,white,no,yes,768,legacy,5,79,/Users/hannahrae97/Desktop/CTsubject-2.csv,legacy,Kafkaesque Koffka,3.2.5,0,s,NA,s,h,NA,s,401,NA,3894,17968,NA,401,2,legacy,1024,2,48000,-16,experiment,HHSHH,2,even,7410,165448,NA,173607,174817,144111,3490,166292,NA,174708,3503,147478,NA,174818,175221,174700,Flanker Task,81,42648,86,yes,1024
incongruent,94.25287356,94.25287356,494.5057471,494.5057471,black,legacy,legacy,legacy,0,uniform,1,undefined,1,h,0,0,0,86,86,86,0,86,0,86,0,0,0,86,86,86,Sun Sep  9 20:33:43 2018,600,The main experiment item,yes,FlankerTask.osexp,/Users/hannahrae97/Desktop,no,mono,no,18,no,white,no,yes,768,legacy,6,79,/Users/hannahrae97/Desktop/CTsubject-2.csv,legacy,Kafkaesque Koffka,3.2.5,0,h,NA,s,h,NA,h,374,NA,3894,17968,NA,374,2,legacy,1024,2,48000,-16,experiment,SSHSS,2,even,7410,165448,NA,175233,176440,144111,3490,166292,NA,176332,3503,147478,NA,176441,176817,176323,Flanker Task,82,43022,87,yes,1024
incongruent,94.31818182,94.31818182,494.4886364,494.4886364,black,legacy,legacy,legacy,0,uniform,1,undefined,1,s,0,0,0,87,87,87,0,87,0,87,0,0,0,87,87,87,Sun Sep  9 20:33:43 2018,600,The main experiment item,yes,FlankerTask.osexp,/Users/hannahrae97/Desktop,no,mono,no,18,no,white,no,yes,768,legacy,7,79,/Users/hannahrae97/Desktop/CTsubject-2.csv,legacy,Kafkaesque Koffka,3.2.5,0,s,NA,s,h,NA,s,493,NA,3894,17968,NA,493,2,legacy,1024,2,48000,-16,experiment,HHSHH,2,even,7410,165448,NA,176829,178039,144111,3490,166292,NA,177931,3503,147478,NA,178039,178534,177922,Flanker Task,83,43515,88,yes,1024
Congruent,94.38202247,94.38202247,493.3033708,493.3033708,black,legacy,legacy,legacy,0,uniform,1,undefined,1,s,0,0,0,88,88,88,0,88,0,88,0,0,0,88,88,88,Sun Sep  9 20:33:43 2018,600,The main experiment item,yes,FlankerTask.osexp,/Users/hannahrae97/Desktop,no,mono,no,18,no,white,no,yes,768,legacy,8,79,/Users/hannahrae97/Desktop/CTsubject-2.csv,legacy,Kafkaesque Koffka,3.2.5,0,s,NA,s,h,NA,s,389,NA,3894,17968,NA,389,2,legacy,1024,2,48000,-16,experiment,SSSSS,2,even,7410,165448,NA,178546,179751,144111,3490,166292,NA,179643,3503,147478,NA,179751,180142,179635,Flanker Task,84,43904,89,yes,1024
incongruent,93.33333333,93.33333333,493.1666667,493.1666667,black,legacy,legacy,legacy,0,uniform,0,undefined,0,h,0,0,0,89,89,89,0,89,0,89,0,0,0,89,89,89,Sun Sep  9 20:33:43 2018,600,The main experiment item,yes,FlankerTask.osexp,/Users/hannahrae97/Desktop,no,mono,no,18,no,white,no,yes,768,legacy,9,79,/Users/hannahrae97/Desktop/CTsubject-2.csv,legacy,Kafkaesque Koffka,3.2.5,0,s,NA,s,h,NA,s,481,NA,3894,17968,NA,481,2,legacy,1024,2,48000,-16,experiment,SSHSS,2,even,7410,165448,NA,180154,181361,144111,3490,166292,NA,181253,3503,147478,NA,181361,181844,181245,Flanker Task,84,44385,90,yes,1024
incongruent,93.40659341,93.40659341,493.0989011,493.0989011,black,legacy,legacy,legacy,0,uniform,1,undefined,1,s,0,0,0,90,90,90,0,90,0,90,0,0,0,90,90,90,Sun Sep  9 20:33:43 2018,600,The main experiment item,yes,FlankerTask.osexp,/Users/hannahrae97/Desktop,no,mono,no,18,no,white,no,yes,768,legacy,10,79,/Users/hannahrae97/Desktop/CTsubject-2.csv,legacy,Kafkaesque Koffka,3.2.5,0,s,NA,s,h,NA,s,487,NA,3894,17968,NA,487,2,legacy,1024,2,48000,-16,experiment,HHSHH,2,even,7410,165448,NA,182364,183570,181855,3490,166292,NA,183462,3503,147478,NA,183570,184059,183454,Flanker Task,85,44872,91,yes,1024
incongruent,93.47826087,93.47826087,492.673913,492.673913,black,legacy,legacy,legacy,0,uniform,1,undefined,1,h,0,0,0,91,91,91,0,91,0,91,0,0,0,91,91,91,Sun Sep  9 20:33:43 2018,600,The main experiment item,yes,FlankerTask.osexp,/Users/hannahrae97/Desktop,no,mono,no,18,no,white,no,yes,768,legacy,11,79,/Users/hannahrae97/Desktop/CTsubject-2.csv,legacy,Kafkaesque Koffka,3.2.5,0,h,NA,s,h,NA,h,454,NA,3894,17968,NA,454,2,legacy,1024,2,48000,-16,experiment,SSHSS,2,even,7410,165448,NA,184073,185280,181855,3490,166292,NA,185172,3503,147478,NA,185280,185737,185163,Flanker Task,86,45326,92,yes,1024
Congruent,93.5483871,93.5483871,491.8709677,491.8709677,black,legacy,legacy,legacy,0,uniform,1,undefined,1,s,0,0,0,92,92,92,0,92,0,92,0,0,0,92,92,92,Sun Sep  9 20:33:43 2018,600,The main experiment item,yes,FlankerTask.osexp,/Users/hannahrae97/Desktop,no,mono,no,18,no,white,no,yes,768,legacy,12,79,/Users/hannahrae97/Desktop/CTsubject-2.csv,legacy,Kafkaesque Koffka,3.2.5,0,s,NA,s,h,NA,s,418,NA,3894,17968,NA,418,2,legacy,1024,2,48000,-16,experiment,SSSSS,2,even,7410,165448,NA,185750,186962,181855,3490,166292,NA,186854,3503,147478,NA,186962,187382,186846,Flanker Task,87,45744,93,yes,1024
congruent,93.61702128,93.61702128,491.8617021,491.8617021,black,legacy,legacy,legacy,0,uniform,1,undefined,1,h,0,0,0,93,93,93,0,93,0,93,0,0,0,93,93,93,Sun Sep  9 20:33:43 2018,600,The main experiment item,yes,FlankerTask.osexp,/Users/hannahrae97/Desktop,no,mono,no,18,no,white,no,yes,768,legacy,13,79,/Users/hannahrae97/Desktop/CTsubject-2.csv,legacy,Kafkaesque Koffka,3.2.5,0,h,NA,s,h,NA,h,491,NA,3894,17968,NA,491,2,legacy,1024,2,48000,-16,experiment,HHHHH,2,even,7410,165448,NA,187395,188607,181855,3490,166292,NA,188498,3503,147478,NA,188607,189100,188486,Flanker Task,88,46235,94,yes,1024
Congruent,93.68421053,93.68421053,492.0526316,492.0526316,black,legacy,legacy,legacy,0,uniform,1,undefined,1,s,0,0,0,94,94,94,0,94,0,94,0,0,0,94,94,94,Sun Sep  9 20:33:43 2018,600,The main experiment item,yes,FlankerTask.osexp,/Users/hannahrae97/Desktop,no,mono,no,18,no,white,no,yes,768,legacy,14,79,/Users/hannahrae97/Desktop/CTsubject-2.csv,legacy,Kafkaesque Koffka,3.2.5,0,s,NA,s,h,NA,s,510,NA,3894,17968,NA,510,2,legacy,1024,2,48000,-16,experiment,SSSSS,2,even,7410,165448,NA,189112,190321,181855,3490,166292,NA,190211,3503,147478,NA,190321,190833,190203,Flanker Task,89,46745,95,yes,1024
Congruent,93.75,93.75,491.21875,491.21875,black,legacy,legacy,legacy,0,uniform,1,undefined,1,s,0,0,0,95,95,95,0,95,0,95,0,0,0,95,95,95,Sun Sep  9 20:33:43 2018,600,The main experiment item,yes,FlankerTask.osexp,/Users/hannahrae97/Desktop,no,mono,no,18,no,white,no,yes,768,legacy,15,79,/Users/hannahrae97/Desktop/CTsubject-2.csv,legacy,Kafkaesque Koffka,3.2.5,0,s,NA,s,h,NA,s,412,NA,3894,17968,NA,412,2,legacy,1024,2,48000,-16,experiment,SSSSS,2,even,7410,165448,NA,190845,192050,181855,3490,166292,NA,191942,3503,147478,NA,192050,192464,191934,Flanker Task,90,47157,96,yes,1024
incongruent,93.81443299,93.81443299,492.9690722,492.9690722,black,legacy,legacy,legacy,0,uniform,1,undefined,1,s,0,0,0,96,96,96,0,96,0,96,0,0,0,96,96,96,Sun Sep  9 20:33:43 2018,600,The main experiment item,yes,FlankerTask.osexp,/Users/hannahrae97/Desktop,no,mono,no,18,no,white,no,yes,768,legacy,16,79,/Users/hannahrae97/Desktop/CTsubject-2.csv,legacy,Kafkaesque Koffka,3.2.5,0,s,NA,s,h,NA,s,661,NA,3894,17968,NA,661,2,legacy,1024,2,48000,-16,experiment,HHSHH,2,even,7410,165448,NA,192476,193686,181855,3490,166292,NA,193578,3503,147478,NA,193686,194349,193569,Flanker Task,91,47818,97,yes,1024
congruent,93.87755102,93.87755102,492.7755102,492.7755102,black,legacy,legacy,legacy,0,uniform,1,undefined,1,h,0,0,0,97,97,97,0,97,0,97,0,0,0,97,97,97,Sun Sep  9 20:33:43 2018,600,The main experiment item,yes,FlankerTask.osexp,/Users/hannahrae97/Desktop,no,mono,no,18,no,white,no,yes,768,legacy,17,79,/Users/hannahrae97/Desktop/CTsubject-2.csv,legacy,Kafkaesque Koffka,3.2.5,0,h,NA,s,h,NA,h,474,NA,3894,17968,NA,474,2,legacy,1024,2,48000,-16,experiment,HHHHH,2,even,7410,165448,NA,194869,196074,181855,3490,194361,NA,195966,3503,147478,NA,196074,196551,195958,Flanker Task,92,48292,98,yes,1024
Congruent,93.93939394,93.93939394,492.1010101,492.1010101,black,legacy,legacy,legacy,0,uniform,1,undefined,1,s,0,0,0,98,98,98,0,98,0,98,0,0,0,98,98,98,Sun Sep  9 20:33:43 2018,600,The main experiment item,yes,FlankerTask.osexp,/Users/hannahrae97/Desktop,no,mono,no,18,no,white,no,yes,768,legacy,18,79,/Users/hannahrae97/Desktop/CTsubject-2.csv,legacy,Kafkaesque Koffka,3.2.5,0,s,NA,s,h,NA,s,426,NA,3894,17968,NA,426,2,legacy,1024,2,48000,-16,experiment,SSSSS,2,even,7410,165448,NA,196565,197771,181855,3490,194361,NA,197662,3503,147478,NA,197771,198199,197654,Flanker Task,93,48718,99,yes,1024
Congruent,94,94,491.94,491.94,black,legacy,legacy,legacy,0,uniform,1,undefined,1,s,0,0,0,99,99,99,0,99,0,99,0,0,0,99,99,99,Sun Sep  9 20:33:43 2018,600,The main experiment item,yes,FlankerTask.osexp,/Users/hannahrae97/Desktop,no,mono,no,18,no,white,no,yes,768,legacy,19,79,/Users/hannahrae97/Desktop/CTsubject-2.csv,legacy,Kafkaesque Koffka,3.2.5,0,s,NA,s,h,NA,s,476,NA,3894,17968,NA,476,2,legacy,1024,2,48000,-16,experiment,SSSSS,2,even,7410,165448,NA,198211,199425,181855,3490,194361,NA,199317,3503,147478,NA,199425,199903,199306,Flanker Task,94,49194,100,yes,1024
incongruent,94.05940594,94.05940594,491.5742574,491.5742574,black,legacy,legacy,legacy,0,uniform,1,undefined,1,s,0,0,0,100,100,100,0,100,0,100,0,0,0,100,100,100,Sun Sep  9 20:33:43 2018,600,The main experiment item,yes,FlankerTask.osexp,/Users/hannahrae97/Desktop,no,mono,no,18,no,white,no,yes,768,legacy,20,79,/Users/hannahrae97/Desktop/CTsubject-2.csv,legacy,Kafkaesque Koffka,3.2.5,0,s,NA,s,h,NA,s,455,NA,3894,17968,NA,455,2,legacy,1024,2,48000,-16,experiment,HHSHH,2,even,7410,165448,NA,199915,201121,181855,3490,194361,NA,201013,3503,147478,NA,201121,201579,201004,Flanker Task,95,49649,101,yes,1024
Congruent,94.11764706,94.11764706,491.0686275,491.0686275,black,legacy,legacy,legacy,0,uniform,1,undefined,1,s,0,0,0,101,101,101,0,101,0,101,0,0,0,101,101,101,Sun Sep  9 20:33:43 2018,600,The main experiment item,yes,FlankerTask.osexp,/Users/hannahrae97/Desktop,no,mono,no,18,no,white,no,yes,768,legacy,21,79,/Users/hannahrae97/Desktop/CTsubject-2.csv,legacy,Kafkaesque Koffka,3.2.5,0,s,NA,s,h,NA,s,440,NA,3894,17968,NA,440,2,legacy,1024,2,48000,-16,experiment,SSSSS,2,even,7410,165448,NA,201591,202796,181855,3490,194361,NA,202688,3503,147478,NA,202796,203238,202679,Flanker Task,96,50089,102,yes,1024
incongruent,94.17475728,94.17475728,491.0194175,491.0194175,black,legacy,legacy,legacy,0,uniform,1,undefined,1,h,0,0,0,102,102,102,0,102,0,102,0,0,0,102,102,102,Sun Sep  9 20:33:43 2018,600,The main experiment item,yes,FlankerTask.osexp,/Users/hannahrae97/Desktop,no,mono,no,18,no,white,no,yes,768,legacy,22,79,/Users/hannahrae97/Desktop/CTsubject-2.csv,legacy,Kafkaesque Koffka,3.2.5,0,h,NA,s,h,NA,h,486,NA,3894,17968,NA,486,2,legacy,1024,2,48000,-16,experiment,SSHSS,2,even,7410,165448,NA,203250,204457,181855,3490,194361,NA,204349,3503,147478,NA,204457,204945,204340,Flanker Task,97,50575,103,yes,1024
incongruent,94.23076923,94.23076923,489.7788462,489.7788462,black,legacy,legacy,legacy,0,uniform,1,undefined,1,s,0,0,0,103,103,103,0,103,0,103,0,0,0,103,103,103,Sun Sep  9 20:33:43 2018,600,The main experiment item,yes,FlankerTask.osexp,/Users/hannahrae97/Desktop,no,mono,no,18,no,white,no,yes,768,legacy,23,79,/Users/hannahrae97/Desktop/CTsubject-2.csv,legacy,Kafkaesque Koffka,3.2.5,0,s,NA,s,h,NA,s,362,NA,3894,17968,NA,362,2,legacy,1024,2,48000,-16,experiment,HHSHH,2,even,7410,165448,NA,204957,206161,181855,3490,194361,NA,206053,3503,147478,NA,206161,206525,206045,Flanker Task,98,50937,104,yes,1024
incongruent,94.28571429,94.28571429,489.5142857,489.5142857,black,legacy,legacy,legacy,0,uniform,1,undefined,1,s,0,0,0,104,104,104,0,104,0,104,0,0,0,104,104,104,Sun Sep  9 20:33:43 2018,600,The main experiment item,yes,FlankerTask.osexp,/Users/hannahrae97/Desktop,no,mono,no,18,no,white,no,yes,768,legacy,24,79,/Users/hannahrae97/Desktop/CTsubject-2.csv,legacy,Kafkaesque Koffka,3.2.5,0,s,NA,s,h,NA,s,462,NA,3894,17968,NA,462,2,legacy,1024,2,48000,-16,experiment,HHSHH,2,even,7410,165448,NA,206537,207745,181855,3490,194361,NA,207637,3503,147478,NA,207745,208209,207629,Flanker Task,99,51399,105,yes,1024
Congruent,94.33962264,94.33962264,488.245283,488.245283,black,legacy,legacy,legacy,0,uniform,1,undefined,1,s,0,0,0,105,105,105,0,105,0,105,0,0,0,105,105,105,Sun Sep  9 20:33:43 2018,600,The main experiment item,yes,FlankerTask.osexp,/Users/hannahrae97/Desktop,no,mono,no,18,no,white,no,yes,768,legacy,25,79,/Users/hannahrae97/Desktop/CTsubject-2.csv,legacy,Kafkaesque Koffka,3.2.5,0,s,NA,s,h,NA,s,355,NA,3894,17968,NA,355,2,legacy,1024,2,48000,-16,experiment,SSSSS,2,even,7410,165448,NA,208221,209426,181855,3490,194361,NA,209318,3503,147478,NA,209426,209783,209310,Flanker Task,100,51754,106,yes,1024
Congruent,94.39252336,94.39252336,486.588785,486.588785,black,legacy,legacy,legacy,0,uniform,1,undefined,1,s,0,0,0,106,106,106,0,106,0,106,0,0,0,106,106,106,Sun Sep  9 20:33:43 2018,600,The main experiment item,yes,FlankerTask.osexp,/Users/hannahrae97/Desktop,no,mono,no,18,no,white,no,yes,768,legacy,26,79,/Users/hannahrae97/Desktop/CTsubject-2.csv,legacy,Kafkaesque Koffka,3.2.5,0,s,NA,s,h,NA,s,311,NA,3894,17968,NA,311,2,legacy,1024,2,48000,-16,experiment,SSSSS,2,even,7410,165448,NA,209795,211002,181855,3490,194361,NA,210895,3503,147478,NA,211002,211315,210886,Flanker Task,101,52065,107,yes,1024
incongruent,94.44444444,94.44444444,485.7777778,485.7777778,black,legacy,legacy,legacy,0,uniform,1,undefined,1,h,0,0,0,107,107,107,0,107,0,107,0,0,0,107,107,107,Sun Sep  9 20:33:43 2018,600,The main experiment item,yes,FlankerTask.osexp,/Users/hannahrae97/Desktop,no,mono,no,18,no,white,no,yes,768,legacy,27,79,/Users/hannahrae97/Desktop/CTsubject-2.csv,legacy,Kafkaesque Koffka,3.2.5,0,h,NA,s,h,NA,h,399,NA,3894,17968,NA,399,2,legacy,1024,2,48000,-16,experiment,SSHSS,2,even,7410,165448,NA,211327,212541,181855,3490,194361,NA,212432,3503,147478,NA,212541,212942,212423,Flanker Task,102,52464,108,yes,1024
incongruent,93.57798165,93.57798165,485.1192661,485.1192661,black,legacy,legacy,legacy,0,uniform,0,undefined,0,h,0,0,0,108,108,108,0,108,0,108,0,0,0,108,108,108,Sun Sep  9 20:33:43 2018,600,The main experiment item,yes,FlankerTask.osexp,/Users/hannahrae97/Desktop,no,mono,no,18,no,white,no,yes,768,legacy,28,79,/Users/hannahrae97/Desktop/CTsubject-2.csv,legacy,Kafkaesque Koffka,3.2.5,0,s,NA,s,h,NA,s,414,NA,3894,17968,NA,414,2,legacy,1024,2,48000,-16,experiment,SSHSS,2,even,7410,165448,NA,212954,214162,181855,3490,194361,NA,214054,3503,147478,NA,214162,214578,214044,Flanker Task,102,52878,109,yes,1024
congruent,93.63636364,93.63636364,484.8090909,484.8090909,black,legacy,legacy,legacy,0,uniform,1,undefined,1,h,0,0,0,109,109,109,0,109,0,109,0,0,0,109,109,109,Sun Sep  9 20:33:43 2018,600,The main experiment item,yes,FlankerTask.osexp,/Users/hannahrae97/Desktop,no,mono,no,18,no,white,no,yes,768,legacy,29,79,/Users/hannahrae97/Desktop/CTsubject-2.csv,legacy,Kafkaesque Koffka,3.2.5,0,h,NA,s,h,NA,h,451,NA,3894,17968,NA,451,2,legacy,1024,2,48000,-16,experiment,HHHHH,2,even,7410,165448,NA,215099,216307,214590,3490,194361,NA,216199,3503,147478,NA,216307,216760,216190,Flanker Task,103,53329,110,yes,1024
incongruent,93.69369369,93.69369369,485.8828829,485.8828829,black,legacy,legacy,legacy,0,uniform,1,undefined,1,h,0,0,0,110,110,110,0,110,0,110,0,0,0,110,110,110,Sun Sep  9 20:33:43 2018,600,The main experiment item,yes,FlankerTask.osexp,/Users/hannahrae97/Desktop,no,mono,no,18,no,white,no,yes,768,legacy,30,79,/Users/hannahrae97/Desktop/CTsubject-2.csv,legacy,Kafkaesque Koffka,3.2.5,0,h,NA,s,h,NA,h,604,NA,3894,17968,NA,604,2,legacy,1024,2,48000,-16,experiment,SSHSS,2,even,7410,165448,NA,216772,217978,214590,3490,194361,NA,217870,3503,147478,NA,217978,218584,217862,Flanker Task,104,53933,111,yes,1024
incongruent,93.75,93.75,487.2589286,487.2589286,black,legacy,legacy,legacy,0,uniform,1,undefined,1,s,0,0,0,111,111,111,0,111,0,111,0,0,0,111,111,111,Sun Sep  9 20:33:43 2018,600,The main experiment item,yes,FlankerTask.osexp,/Users/hannahrae97/Desktop,no,mono,no,18,no,white,no,yes,768,legacy,31,79,/Users/hannahrae97/Desktop/CTsubject-2.csv,legacy,Kafkaesque Koffka,3.2.5,0,s,NA,s,h,NA,s,640,NA,3894,17968,NA,640,2,legacy,1024,2,48000,-16,experiment,HHSHH,2,even,7410,165448,NA,219104,220312,214590,3490,218596,NA,220204,3503,147478,NA,220312,220954,220195,Flanker Task,105,54573,112,yes,1024
incongruent,93.80530973,93.80530973,485.8761062,485.8761062,black,legacy,legacy,legacy,0,uniform,1,undefined,1,h,0,0,0,112,112,112,0,112,0,112,0,0,0,112,112,112,Sun Sep  9 20:33:43 2018,600,The main experiment item,yes,FlankerTask.osexp,/Users/hannahrae97/Desktop,no,mono,no,18,no,white,no,yes,768,legacy,32,79,/Users/hannahrae97/Desktop/CTsubject-2.csv,legacy,Kafkaesque Koffka,3.2.5,0,h,NA,s,h,NA,h,331,NA,3894,17968,NA,331,2,legacy,1024,2,48000,-16,experiment,SSHSS,2,even,7410,165448,NA,221475,222682,214590,3490,220967,NA,222574,3503,147478,NA,222682,223015,222566,Flanker Task,106,54904,113,yes,1024
Congruent,92.98245614,92.98245614,485.3684211,485.3684211,black,legacy,legacy,legacy,0,uniform,0,undefined,0,s,0,0,0,113,113,113,0,113,0,113,0,0,0,113,113,113,Sun Sep  9 20:33:43 2018,600,The main experiment item,yes,FlankerTask.osexp,/Users/hannahrae97/Desktop,no,mono,no,18,no,white,no,yes,768,legacy,33,79,/Users/hannahrae97/Desktop/CTsubject-2.csv,legacy,Kafkaesque Koffka,3.2.5,0,h,NA,s,h,NA,h,428,NA,3894,17968,NA,428,2,legacy,1024,2,48000,-16,experiment,SSSSS,2,even,7410,165448,NA,223027,224232,214590,3490,220967,NA,224124,3503,147478,NA,224232,224662,224116,Flanker Task,106,55332,114,yes,1024
Congruent,93.04347826,93.04347826,484.4086957,484.4086957,black,legacy,legacy,legacy,0,uniform,1,undefined,1,s,0,0,0,114,114,114,0,114,0,114,0,0,0,114,114,114,Sun Sep  9 20:33:43 2018,600,The main experiment item,yes,FlankerTask.osexp,/Users/hannahrae97/Desktop,no,mono,no,18,no,white,no,yes,768,legacy,34,79,/Users/hannahrae97/Desktop/CTsubject-2.csv,legacy,Kafkaesque Koffka,3.2.5,0,s,NA,s,h,NA,s,375,NA,3894,17968,NA,375,2,legacy,1024,2,48000,-16,experiment,SSSSS,2,even,7410,165448,NA,225186,226395,224674,3490,220967,NA,226285,3503,147478,NA,226395,226772,226277,Flanker Task,107,55707,115,yes,1024
congruent,93.10344828,93.10344828,484.387931,484.387931,black,legacy,legacy,legacy,0,uniform,1,undefined,1,h,0,0,0,115,115,115,0,115,0,115,0,0,0,115,115,115,Sun Sep  9 20:33:43 2018,600,The main experiment item,yes,FlankerTask.osexp,/Users/hannahrae97/Desktop,no,mono,no,18,no,white,no,yes,768,legacy,35,79,/Users/hannahrae97/Desktop/CTsubject-2.csv,legacy,Kafkaesque Koffka,3.2.5,0,h,NA,s,h,NA,h,482,NA,3894,17968,NA,482,2,legacy,1024,2,48000,-16,experiment,HHHHH,2,even,7410,165448,NA,226784,227992,224674,3490,220967,NA,227883,3503,147478,NA,227992,228477,227874,Flanker Task,108,56189,116,yes,1024
Congruent,93.16239316,93.16239316,484.034188,484.034188,black,legacy,legacy,legacy,0,uniform,1,undefined,1,s,0,0,0,116,116,116,0,116,0,116,0,0,0,116,116,116,Sun Sep  9 20:33:43 2018,600,The main experiment item,yes,FlankerTask.osexp,/Users/hannahrae97/Desktop,no,mono,no,18,no,white,no,yes,768,legacy,36,79,/Users/hannahrae97/Desktop/CTsubject-2.csv,legacy,Kafkaesque Koffka,3.2.5,0,s,NA,s,h,NA,s,443,NA,3894,17968,NA,443,2,legacy,1024,2,48000,-16,experiment,SSSSS,2,even,7410,165448,NA,228494,229700,224674,3490,220967,NA,229592,3503,147478,NA,229700,230145,229584,Flanker Task,109,56632,117,yes,1024
incongruent,93.22033898,93.22033898,483.9491525,483.9491525,black,legacy,legacy,legacy,0,uniform,1,undefined,1,h,0,0,0,117,117,117,0,117,0,117,0,0,0,117,117,117,Sun Sep  9 20:33:43 2018,600,The main experiment item,yes,FlankerTask.osexp,/Users/hannahrae97/Desktop,no,mono,no,18,no,white,no,yes,768,legacy,37,79,/Users/hannahrae97/Desktop/CTsubject-2.csv,legacy,Kafkaesque Koffka,3.2.5,0,h,NA,s,h,NA,h,474,NA,3894,17968,NA,474,2,legacy,1024,2,48000,-16,experiment,SSHSS,2,even,7410,165448,NA,230157,231368,224674,3490,220967,NA,231259,3503,147478,NA,231368,231844,231251,Flanker Task,110,57106,118,yes,1024
incongruent,92.43697479,92.43697479,483.092437,483.092437,black,legacy,legacy,legacy,0,uniform,0,undefined,0,h,0,0,0,118,118,118,0,118,0,118,0,0,0,118,118,118,Sun Sep  9 20:33:43 2018,600,The main experiment item,yes,FlankerTask.osexp,/Users/hannahrae97/Desktop,no,mono,no,18,no,white,no,yes,768,legacy,38,79,/Users/hannahrae97/Desktop/CTsubject-2.csv,legacy,Kafkaesque Koffka,3.2.5,0,s,NA,s,h,NA,s,382,NA,3894,17968,NA,382,2,legacy,1024,2,48000,-16,experiment,SSHSS,2,even,7410,165448,NA,231856,233061,224674,3490,220967,NA,232952,3503,147478,NA,233062,233446,232944,Flanker Task,110,57488,119,yes,1024
incongruent,92.5,92.5,483.8083333,483.8083333,black,legacy,legacy,legacy,0,uniform,1,undefined,1,s,0,0,0,119,119,119,0,119,0,119,0,0,0,119,119,119,Sun Sep  9 20:33:43 2018,600,The main experiment item,yes,FlankerTask.osexp,/Users/hannahrae97/Desktop,no,mono,no,18,no,white,no,yes,768,legacy,39,79,/Users/hannahrae97/Desktop/CTsubject-2.csv,legacy,Kafkaesque Koffka,3.2.5,0,s,NA,s,h,NA,s,569,NA,3894,17968,NA,569,2,legacy,1024,2,48000,-16,experiment,HHSHH,2,even,7410,165448,NA,233966,235173,233458,3490,220967,NA,235065,3503,147478,NA,235173,235744,235056,Flanker Task,111,58057,120,yes,1024
incongruent,92.56198347,92.56198347,483.4710744,483.4710744,black,legacy,legacy,legacy,0,uniform,1,undefined,1,h,0,0,0,120,120,120,0,120,0,120,0,0,0,120,120,120,Sun Sep  9 20:33:43 2018,600,The main experiment item,yes,FlankerTask.osexp,/Users/hannahrae97/Desktop,no,mono,no,18,no,white,no,yes,768,legacy,40,79,/Users/hannahrae97/Desktop/CTsubject-2.csv,legacy,Kafkaesque Koffka,3.2.5,0,h,NA,s,h,NA,h,443,NA,3894,17968,NA,443,2,legacy,1024,2,48000,-16,experiment,SSHSS,2,even,7410,165448,NA,235756,236962,233458,3490,220967,NA,236854,3503,147478,NA,236962,237407,236845,Flanker Task,112,58500,121,yes,1024
incongruent,91.80327869,91.80327869,482.9918033,482.9918033,black,legacy,legacy,legacy,0,uniform,0,undefined,0,s,0,0,0,121,121,121,0,121,0,121,0,0,0,121,121,121,Sun Sep  9 20:33:43 2018,600,The main experiment item,yes,FlankerTask.osexp,/Users/hannahrae97/Desktop,no,mono,no,18,no,white,no,yes,768,legacy,41,79,/Users/hannahrae97/Desktop/CTsubject-2.csv,legacy,Kafkaesque Koffka,3.2.5,0,h,NA,s,h,NA,h,425,NA,3894,17968,NA,425,2,legacy,1024,2,48000,-16,experiment,HHSHH,2,even,7410,165448,NA,237419,238635,233458,3490,220967,NA,238527,3503,147478,NA,238635,239062,238517,Flanker Task,112,58925,122,yes,1024
incongruent,91.8699187,91.8699187,483.9674797,483.9674797,black,legacy,legacy,legacy,0,uniform,1,undefined,1,s,0,0,0,122,122,122,0,122,0,122,0,0,0,122,122,122,Sun Sep  9 20:33:43 2018,600,The main experiment item,yes,FlankerTask.osexp,/Users/hannahrae97/Desktop,no,mono,no,18,no,white,no,yes,768,legacy,42,79,/Users/hannahrae97/Desktop/CTsubject-2.csv,legacy,Kafkaesque Koffka,3.2.5,0,s,NA,s,h,NA,s,603,NA,3894,17968,NA,603,2,legacy,1024,2,48000,-16,experiment,HHSHH,2,even,7410,165448,NA,239582,240789,239074,3490,220967,NA,240681,3503,147478,NA,240790,241395,240673,Flanker Task,113,59528,123,yes,1024
congruent,91.93548387,91.93548387,482.766129,482.766129,black,legacy,legacy,legacy,0,uniform,1,undefined,1,h,0,0,0,123,123,123,0,123,0,123,0,0,0,123,123,123,Sun Sep  9 20:33:43 2018,600,The main experiment item,yes,FlankerTask.osexp,/Users/hannahrae97/Desktop,no,mono,no,18,no,white,no,yes,768,legacy,43,79,/Users/hannahrae97/Desktop/CTsubject-2.csv,legacy,Kafkaesque Koffka,3.2.5,0,h,NA,s,h,NA,h,335,NA,3894,17968,NA,335,2,legacy,1024,2,48000,-16,experiment,HHHHH,2,even,7410,165448,NA,241915,243119,239074,3490,241407,NA,243011,3503,147478,NA,243119,243456,243003,Flanker Task,114,59863,124,yes,1024
Congruent,92,92,482.368,482.368,black,legacy,legacy,legacy,0,uniform,1,undefined,1,s,0,0,0,124,124,124,0,124,0,124,0,0,0,124,124,124,Sun Sep  9 20:33:43 2018,600,The main experiment item,yes,FlankerTask.osexp,/Users/hannahrae97/Desktop,no,mono,no,18,no,white,no,yes,768,legacy,44,79,/Users/hannahrae97/Desktop/CTsubject-2.csv,legacy,Kafkaesque Koffka,3.2.5,0,s,NA,s,h,NA,s,433,NA,3894,17968,NA,433,2,legacy,1024,2,48000,-16,experiment,SSSSS,2,even,7410,165448,NA,243468,244673,239074,3490,241407,NA,244565,3503,147478,NA,244673,245108,244556,Flanker Task,115,60296,125,yes,1024
congruent,92.06349206,92.06349206,481.3174603,481.3174603,black,legacy,legacy,legacy,0,uniform,1,undefined,1,h,0,0,0,125,125,125,0,125,0,125,0,0,0,125,125,125,Sun Sep  9 20:33:43 2018,600,The main experiment item,yes,FlankerTask.osexp,/Users/hannahrae97/Desktop,no,mono,no,18,no,white,no,yes,768,legacy,45,79,/Users/hannahrae97/Desktop/CTsubject-2.csv,legacy,Kafkaesque Koffka,3.2.5,0,h,NA,s,h,NA,h,350,NA,3894,17968,NA,350,2,legacy,1024,2,48000,-16,experiment,HHHHH,2,even,7410,165448,NA,245124,246330,239074,3490,241407,NA,246222,3503,147478,NA,246330,246682,246213,Flanker Task,116,60646,126,yes,1024
congruent,92.12598425,92.12598425,481.2677165,481.2677165,black,legacy,legacy,legacy,0,uniform,1,undefined,1,h,0,0,0,126,126,126,0,126,0,126,0,0,0,126,126,126,Sun Sep  9 20:33:43 2018,600,The main experiment item,yes,FlankerTask.osexp,/Users/hannahrae97/Desktop,no,mono,no,18,no,white,no,yes,768,legacy,46,79,/Users/hannahrae97/Desktop/CTsubject-2.csv,legacy,Kafkaesque Koffka,3.2.5,0,h,NA,s,h,NA,h,475,NA,3894,17968,NA,475,2,legacy,1024,2,48000,-16,experiment,HHHHH,2,even,7410,165448,NA,246694,247900,239074,3490,241407,NA,247792,3503,147478,NA,247900,248377,247784,Flanker Task,117,61121,127,yes,1024
incongruent,92.1875,92.1875,481.40625,481.40625,black,legacy,legacy,legacy,0,uniform,1,undefined,1,s,0,0,0,127,127,127,0,127,0,127,0,0,0,127,127,127,Sun Sep  9 20:33:43 2018,600,The main experiment item,yes,FlankerTask.osexp,/Users/hannahrae97/Desktop,no,mono,no,18,no,white,no,yes,768,legacy,47,79,/Users/hannahrae97/Desktop/CTsubject-2.csv,legacy,Kafkaesque Koffka,3.2.5,0,s,NA,s,h,NA,s,499,NA,3894,17968,NA,499,2,legacy,1024,2,48000,-16,experiment,HHSHH,2,even,7410,165448,NA,248390,249606,239074,3490,241407,NA,249498,3503,147478,NA,249606,250108,249490,Flanker Task,118,61620,128,yes,1024
incongruent,92.24806202,92.24806202,481.4341085,481.4341085,black,legacy,legacy,legacy,0,uniform,1,undefined,1,h,0,0,0,128,128,128,0,128,0,128,0,0,0,128,128,128,Sun Sep  9 20:33:43 2018,600,The main experiment item,yes,FlankerTask.osexp,/Users/hannahrae97/Desktop,no,mono,no,18,no,white,no,yes,768,legacy,48,79,/Users/hannahrae97/Desktop/CTsubject-2.csv,legacy,Kafkaesque Koffka,3.2.5,0,h,NA,s,h,NA,h,485,NA,3894,17968,NA,485,2,legacy,1024,2,48000,-16,experiment,SSHSS,2,even,7410,165448,NA,250121,251336,239074,3490,241407,NA,251228,3503,147478,NA,251336,251824,251219,Flanker Task,119,62105,129,yes,1024
congruent,92.30769231,92.30769231,481.5307692,481.5307692,black,legacy,legacy,legacy,0,uniform,1,undefined,1,h,0,0,0,129,129,129,0,129,0,129,0,0,0,129,129,129,Sun Sep  9 20:33:43 2018,600,The main experiment item,yes,FlankerTask.osexp,/Users/hannahrae97/Desktop,no,mono,no,18,no,white,no,yes,768,legacy,49,79,/Users/hannahrae97/Desktop/CTsubject-2.csv,legacy,Kafkaesque Koffka,3.2.5,0,h,NA,s,h,NA,h,494,NA,3894,17968,NA,494,2,legacy,1024,2,48000,-16,experiment,HHHHH,2,even,7410,165448,NA,251842,253055,239074,3490,241407,NA,252947,3503,147478,NA,253055,253551,252939,Flanker Task,120,62599,130,yes,1024
Congruent,92.36641221,92.36641221,481.1450382,481.1450382,black,legacy,legacy,legacy,0,uniform,1,undefined,1,s,0,0,0,130,130,130,0,130,0,130,0,0,0,130,130,130,Sun Sep  9 20:33:43 2018,600,The main experiment item,yes,FlankerTask.osexp,/Users/hannahrae97/Desktop,no,mono,no,18,no,white,no,yes,768,legacy,50,79,/Users/hannahrae97/Desktop/CTsubject-2.csv,legacy,Kafkaesque Koffka,3.2.5,0,s,NA,s,h,NA,s,431,NA,3894,17968,NA,431,2,legacy,1024,2,48000,-16,experiment,SSSSS,2,even,7410,165448,NA,253563,254771,239074,3490,241407,NA,254663,3503,147478,NA,254771,255204,254654,Flanker Task,121,63030,131,yes,1024
incongruent,92.42424242,92.42424242,480.8863636,480.8863636,black,legacy,legacy,legacy,0,uniform,1,undefined,1,s,0,0,0,131,131,131,0,131,0,131,0,0,0,131,131,131,Sun Sep  9 20:33:43 2018,600,The main experiment item,yes,FlankerTask.osexp,/Users/hannahrae97/Desktop,no,mono,no,18,no,white,no,yes,768,legacy,51,79,/Users/hannahrae97/Desktop/CTsubject-2.csv,legacy,Kafkaesque Koffka,3.2.5,0,s,NA,s,h,NA,s,447,NA,3894,17968,NA,447,2,legacy,1024,2,48000,-16,experiment,HHSHH,2,even,7410,165448,NA,255216,256422,239074,3490,241407,NA,256314,3503,147478,NA,256422,256871,256306,Flanker Task,122,63477,132,yes,1024
congruent,92.48120301,92.48120301,480.406015,480.406015,black,legacy,legacy,legacy,0,uniform,1,undefined,1,h,0,0,0,132,132,132,0,132,0,132,0,0,0,132,132,132,Sun Sep  9 20:33:43 2018,600,The main experiment item,yes,FlankerTask.osexp,/Users/hannahrae97/Desktop,no,mono,no,18,no,white,no,yes,768,legacy,52,79,/Users/hannahrae97/Desktop/CTsubject-2.csv,legacy,Kafkaesque Koffka,3.2.5,0,h,NA,s,h,NA,h,417,NA,3894,17968,NA,417,2,legacy,1024,2,48000,-16,experiment,HHHHH,2,even,7410,165448,NA,256883,258089,239074,3490,241407,NA,257981,3503,147478,NA,258089,258509,257972,Flanker Task,123,63894,133,yes,1024
incongruent,91.79104478,91.79104478,479.2835821,479.2835821,black,legacy,legacy,legacy,0,uniform,0,undefined,0,h,0,0,0,133,133,133,0,133,0,133,0,0,0,133,133,133,Sun Sep  9 20:33:43 2018,600,The main experiment item,yes,FlankerTask.osexp,/Users/hannahrae97/Desktop,no,mono,no,18,no,white,no,yes,768,legacy,53,79,/Users/hannahrae97/Desktop/CTsubject-2.csv,legacy,Kafkaesque Koffka,3.2.5,0,s,NA,s,h,NA,s,330,NA,3894,17968,NA,330,2,legacy,1024,2,48000,-16,experiment,SSHSS,2,even,7410,165448,NA,258520,259725,239074,3490,241407,NA,259617,3503,147478,NA,259725,260057,259608,Flanker Task,123,64224,134,yes,1024
incongruent,91.85185185,91.85185185,480.5407407,480.5407407,black,legacy,legacy,legacy,0,uniform,1,undefined,1,h,0,0,0,134,134,134,0,134,0,134,0,0,0,134,134,134,Sun Sep  9 20:33:43 2018,600,The main experiment item,yes,FlankerTask.osexp,/Users/hannahrae97/Desktop,no,mono,no,18,no,white,no,yes,768,legacy,54,79,/Users/hannahrae97/Desktop/CTsubject-2.csv,legacy,Kafkaesque Koffka,3.2.5,0,h,NA,s,h,NA,h,649,NA,3894,17968,NA,649,2,legacy,1024,2,48000,-16,experiment,SSHSS,2,even,7410,165448,NA,260577,261783,260069,3490,241407,NA,261675,3503,147478,NA,261783,262435,261665,Flanker Task,124,64873,135,yes,1024
congruent,91.91176471,91.91176471,480.5073529,480.5073529,black,legacy,legacy,legacy,0,uniform,1,undefined,1,h,0,0,0,135,135,135,0,135,0,135,0,0,0,135,135,135,Sun Sep  9 20:33:43 2018,600,The main experiment item,yes,FlankerTask.osexp,/Users/hannahrae97/Desktop,no,mono,no,18,no,white,no,yes,768,legacy,55,79,/Users/hannahrae97/Desktop/CTsubject-2.csv,legacy,Kafkaesque Koffka,3.2.5,0,h,NA,s,h,NA,h,476,NA,3894,17968,NA,476,2,legacy,1024,2,48000,-16,experiment,HHHHH,2,even,7410,165448,NA,262958,264162,260069,3490,262446,NA,264054,3503,147478,NA,264163,264641,264046,Flanker Task,125,65349,136,yes,1024
congruent,91.97080292,91.97080292,479.4087591,479.4087591,black,legacy,legacy,legacy,0,uniform,1,undefined,1,h,0,0,0,136,136,136,0,136,0,136,0,0,0,136,136,136,Sun Sep  9 20:33:43 2018,600,The main experiment item,yes,FlankerTask.osexp,/Users/hannahrae97/Desktop,no,mono,no,18,no,white,no,yes,768,legacy,56,79,/Users/hannahrae97/Desktop/CTsubject-2.csv,legacy,Kafkaesque Koffka,3.2.5,0,h,NA,s,h,NA,h,330,NA,3894,17968,NA,330,2,legacy,1024,2,48000,-16,experiment,HHHHH,2,even,7410,165448,NA,264653,265862,260069,3490,262446,NA,265754,3503,147478,NA,265862,266195,265746,Flanker Task,126,65679,137,yes,1024
congruent,92.02898551,92.02898551,480.0652174,480.0652174,black,legacy,legacy,legacy,0,uniform,1,undefined,1,h,0,0,0,137,137,137,0,137,0,137,0,0,0,137,137,137,Sun Sep  9 20:33:43 2018,600,The main experiment item,yes,FlankerTask.osexp,/Users/hannahrae97/Desktop,no,mono,no,18,no,white,no,yes,768,legacy,57,79,/Users/hannahrae97/Desktop/CTsubject-2.csv,legacy,Kafkaesque Koffka,3.2.5,0,h,NA,s,h,NA,h,570,NA,3894,17968,NA,570,2,legacy,1024,2,48000,-16,experiment,HHHHH,2,even,7410,165448,NA,266207,267416,260069,3490,262446,NA,267308,3503,147478,NA,267416,267989,267300,Flanker Task,127,66249,138,yes,1024
congruent,92.08633094,92.08633094,479.028777,479.028777,black,legacy,legacy,legacy,0,uniform,1,undefined,1,h,0,0,0,138,138,138,0,138,0,138,0,0,0,138,138,138,Sun Sep  9 20:33:43 2018,600,The main experiment item,yes,FlankerTask.osexp,/Users/hannahrae97/Desktop,no,mono,no,18,no,white,no,yes,768,legacy,58,79,/Users/hannahrae97/Desktop/CTsubject-2.csv,legacy,Kafkaesque Koffka,3.2.5,0,h,NA,s,h,NA,h,336,NA,3894,17968,NA,336,2,legacy,1024,2,48000,-16,experiment,HHHHH,2,even,7410,165448,NA,268000,269205,260069,3490,262446,NA,269097,3503,147478,NA,269205,269543,269088,Flanker Task,128,66585,139,yes,1024
Congruent,91.42857143,91.42857143,478,478,black,legacy,legacy,legacy,0,uniform,0,undefined,0,s,0,0,0,139,139,139,0,139,0,139,0,0,0,139,139,139,Sun Sep  9 20:33:43 2018,600,The main experiment item,yes,FlankerTask.osexp,/Users/hannahrae97/Desktop,no,mono,no,18,no,white,no,yes,768,legacy,59,79,/Users/hannahrae97/Desktop/CTsubject-2.csv,legacy,Kafkaesque Koffka,3.2.5,0,h,NA,s,h,NA,h,335,NA,3894,17968,NA,335,2,legacy,1024,2,48000,-16,experiment,SSSSS,2,even,7410,165448,NA,269555,270760,260069,3490,262446,NA,270652,3503,147478,NA,270760,271097,270644,Flanker Task,128,66920,140,yes,1024
incongruent,91.4893617,91.4893617,477.3404255,477.3404255,black,legacy,legacy,legacy,0,uniform,1,undefined,1,h,0,0,0,140,140,140,0,140,0,140,0,0,0,140,140,140,Sun Sep  9 20:33:43 2018,600,The main experiment item,yes,FlankerTask.osexp,/Users/hannahrae97/Desktop,no,mono,no,18,no,white,no,yes,768,legacy,60,79,/Users/hannahrae97/Desktop/CTsubject-2.csv,legacy,Kafkaesque Koffka,3.2.5,0,h,NA,s,h,NA,h,385,NA,3894,17968,NA,385,2,legacy,1024,2,48000,-16,experiment,SSHSS,2,even,7410,165448,NA,271617,272822,271108,3490,262446,NA,272714,3503,147478,NA,272822,273209,272706,Flanker Task,129,67305,141,yes,1024
incongruent,90.84507042,90.84507042,476.8239437,476.8239437,black,legacy,legacy,legacy,0,uniform,0,undefined,0,s,0,0,0,141,141,141,0,141,0,141,0,0,0,141,141,141,Sun Sep  9 20:33:43 2018,600,The main experiment item,yes,FlankerTask.osexp,/Users/hannahrae97/Desktop,no,mono,no,18,no,white,no,yes,768,legacy,61,79,/Users/hannahrae97/Desktop/CTsubject-2.csv,legacy,Kafkaesque Koffka,3.2.5,0,h,NA,s,h,NA,h,404,NA,3894,17968,NA,404,2,legacy,1024,2,48000,-16,experiment,HHSHH,2,even,7410,165448,NA,273220,274438,271108,3490,262446,NA,274330,3503,147478,NA,274438,274844,274321,Flanker Task,129,67709,142,yes,1024
incongruent,90.90909091,90.90909091,476.9230769,476.9230769,black,legacy,legacy,legacy,0,uniform,1,undefined,1,s,0,0,0,142,142,142,0,142,0,142,0,0,0,142,142,142,Sun Sep  9 20:33:43 2018,600,The main experiment item,yes,FlankerTask.osexp,/Users/hannahrae97/Desktop,no,mono,no,18,no,white,no,yes,768,legacy,62,79,/Users/hannahrae97/Desktop/CTsubject-2.csv,legacy,Kafkaesque Koffka,3.2.5,0,s,NA,s,h,NA,s,491,NA,3894,17968,NA,491,2,legacy,1024,2,48000,-16,experiment,HHSHH,2,even,7410,165448,NA,275364,276572,274856,3490,262446,NA,276464,3503,147478,NA,276572,277065,276455,Flanker Task,130,68200,143,yes,1024
congruent,90.97222222,90.97222222,475.8611111,475.8611111,black,legacy,legacy,legacy,0,uniform,1,undefined,1,h,0,0,0,143,143,143,0,143,0,143,0,0,0,143,143,143,Sun Sep  9 20:33:43 2018,600,The main experiment item,yes,FlankerTask.osexp,/Users/hannahrae97/Desktop,no,mono,no,18,no,white,no,yes,768,legacy,63,79,/Users/hannahrae97/Desktop/CTsubject-2.csv,legacy,Kafkaesque Koffka,3.2.5,0,h,NA,s,h,NA,h,324,NA,3894,17968,NA,324,2,legacy,1024,2,48000,-16,experiment,HHHHH,2,even,7410,165448,NA,277077,278284,274856,3490,262446,NA,278175,3503,147478,NA,278284,278610,278167,Flanker Task,131,68524,144,yes,1024
incongruent,91.03448276,91.03448276,476.4551724,476.4551724,black,legacy,legacy,legacy,0,uniform,1,undefined,1,h,0,0,0,144,144,144,0,144,0,144,0,0,0,144,144,144,Sun Sep  9 20:33:43 2018,600,The main experiment item,yes,FlankerTask.osexp,/Users/hannahrae97/Desktop,no,mono,no,18,no,white,no,yes,768,legacy,64,79,/Users/hannahrae97/Desktop/CTsubject-2.csv,legacy,Kafkaesque Koffka,3.2.5,0,h,NA,s,h,NA,h,562,NA,3894,17968,NA,562,2,legacy,1024,2,48000,-16,experiment,SSHSS,2,even,7410,165448,NA,278621,279828,274856,3490,262446,NA,279720,3503,147478,NA,279828,280391,279712,Flanker Task,132,69086,145,yes,1024
incongruent,91.09589041,91.09589041,475.2808219,475.2808219,black,legacy,legacy,legacy,0,uniform,1,undefined,1,s,0,0,0,145,145,145,0,145,0,145,0,0,0,145,145,145,Sun Sep  9 20:33:43 2018,600,The main experiment item,yes,FlankerTask.osexp,/Users/hannahrae97/Desktop,no,mono,no,18,no,white,no,yes,768,legacy,65,79,/Users/hannahrae97/Desktop/CTsubject-2.csv,legacy,Kafkaesque Koffka,3.2.5,0,s,NA,s,h,NA,s,305,NA,3894,17968,NA,305,2,legacy,1024,2,48000,-16,experiment,HHSHH,2,even,7410,165448,NA,280404,281612,274856,3490,262446,NA,281504,3503,147478,NA,281612,281919,281496,Flanker Task,133,69391,146,yes,1024
incongruent,91.15646259,91.15646259,474.2857143,474.2857143,black,legacy,legacy,legacy,0,uniform,1,undefined,1,h,0,0,0,146,146,146,0,146,0,146,0,0,0,146,146,146,Sun Sep  9 20:33:43 2018,600,The main experiment item,yes,FlankerTask.osexp,/Users/hannahrae97/Desktop,no,mono,no,18,no,white,no,yes,768,legacy,66,79,/Users/hannahrae97/Desktop/CTsubject-2.csv,legacy,Kafkaesque Koffka,3.2.5,0,h,NA,s,h,NA,h,329,NA,3894,17968,NA,329,2,legacy,1024,2,48000,-16,experiment,SSHSS,2,even,7410,165448,NA,281931,283135,274856,3490,262446,NA,283027,3503,147478,NA,283135,283467,283019,Flanker Task,134,69720,147,yes,1024
incongruent,91.21621622,91.21621622,474.7432432,474.7432432,black,legacy,legacy,legacy,0,uniform,1,undefined,1,s,0,0,0,147,147,147,0,147,0,147,0,0,0,147,147,147,Sun Sep  9 20:33:43 2018,600,The main experiment item,yes,FlankerTask.osexp,/Users/hannahrae97/Desktop,no,mono,no,18,no,white,no,yes,768,legacy,67,79,/Users/hannahrae97/Desktop/CTsubject-2.csv,legacy,Kafkaesque Koffka,3.2.5,0,s,NA,s,h,NA,s,542,NA,3894,17968,NA,542,2,legacy,1024,2,48000,-16,experiment,HHSHH,2,even,7410,165448,NA,283479,284689,274856,3490,262446,NA,284581,3503,147478,NA,284689,285233,284573,Flanker Task,135,70262,148,yes,1024
congruent,91.27516779,91.27516779,473.8255034,473.8255034,black,legacy,legacy,legacy,0,uniform,1,undefined,1,h,0,0,0,148,148,148,0,148,0,148,0,0,0,148,148,148,Sun Sep  9 20:33:43 2018,600,The main experiment item,yes,FlankerTask.osexp,/Users/hannahrae97/Desktop,no,mono,no,18,no,white,no,yes,768,legacy,68,79,/Users/hannahrae97/Desktop/CTsubject-2.csv,legacy,Kafkaesque Koffka,3.2.5,0,h,NA,s,h,NA,h,338,NA,3894,17968,NA,338,2,legacy,1024,2,48000,-16,experiment,HHHHH,2,even,7410,165448,NA,285244,286451,274856,3490,262446,NA,286343,3503,147478,NA,286451,286791,286335,Flanker Task,136,70600,149,yes,1024
incongruent,90.66666667,90.66666667,472.8733333,472.8733333,black,legacy,legacy,legacy,0,uniform,0,undefined,0,h,0,0,0,149,149,149,0,149,0,149,0,0,0,149,149,149,Sun Sep  9 20:33:43 2018,600,The main experiment item,yes,FlankerTask.osexp,/Users/hannahrae97/Desktop,no,mono,no,18,no,white,no,yes,768,legacy,69,79,/Users/hannahrae97/Desktop/CTsubject-2.csv,legacy,Kafkaesque Koffka,3.2.5,0,s,NA,s,h,NA,s,331,NA,3894,17968,NA,331,2,legacy,1024,2,48000,-16,experiment,SSHSS,2,even,7410,165448,NA,286802,288012,274856,3490,262446,NA,287904,3503,147478,NA,288012,288345,287895,Flanker Task,136,70931,150,yes,1024
congruent,90.72847682,90.72847682,472.8211921,472.8211921,black,legacy,legacy,legacy,0,uniform,1,undefined,1,h,0,0,0,150,150,150,0,150,0,150,0,0,0,150,150,150,Sun Sep  9 20:33:43 2018,600,The main experiment item,yes,FlankerTask.osexp,/Users/hannahrae97/Desktop,no,mono,no,18,no,white,no,yes,768,legacy,70,79,/Users/hannahrae97/Desktop/CTsubject-2.csv,legacy,Kafkaesque Koffka,3.2.5,0,h,NA,s,h,NA,h,465,NA,3894,17968,NA,465,2,legacy,1024,2,48000,-16,experiment,HHHHH,2,even,7410,165448,NA,288864,290072,288356,3490,262446,NA,289964,3503,147478,NA,290072,290539,289955,Flanker Task,137,71396,151,yes,1024
Congruent,90.78947368,90.78947368,472.5065789,472.5065789,black,legacy,legacy,legacy,0,uniform,1,undefined,1,s,0,0,0,151,151,151,0,151,0,151,0,0,0,151,151,151,Sun Sep  9 20:33:43 2018,600,The main experiment item,yes,FlankerTask.osexp,/Users/hannahrae97/Desktop,no,mono,no,18,no,white,no,yes,768,legacy,71,79,/Users/hannahrae97/Desktop/CTsubject-2.csv,legacy,Kafkaesque Koffka,3.2.5,0,s,NA,s,h,NA,s,425,NA,3894,17968,NA,425,2,legacy,1024,2,48000,-16,experiment,SSSSS,2,even,7410,165448,NA,290552,291761,288356,3490,262446,NA,291653,3503,147478,NA,291761,292188,291645,Flanker Task,138,71821,152,yes,1024
incongruent,90.8496732,90.8496732,471.5620915,471.5620915,black,legacy,legacy,legacy,0,uniform,1,undefined,1,h,0,0,0,152,152,152,0,152,0,152,0,0,0,152,152,152,Sun Sep  9 20:33:43 2018,600,The main experiment item,yes,FlankerTask.osexp,/Users/hannahrae97/Desktop,no,mono,no,18,no,white,no,yes,768,legacy,72,79,/Users/hannahrae97/Desktop/CTsubject-2.csv,legacy,Kafkaesque Koffka,3.2.5,0,h,NA,s,h,NA,h,328,NA,3894,17968,NA,328,2,legacy,1024,2,48000,-16,experiment,SSHSS,2,even,7410,165448,NA,292199,293406,288356,3490,262446,NA,293298,3503,147478,NA,293406,293736,293288,Flanker Task,139,72149,153,yes,1024
Congruent,90.90909091,90.90909091,471.3571429,471.3571429,black,legacy,legacy,legacy,0,uniform,1,undefined,1,s,0,0,0,153,153,153,0,153,0,153,0,0,0,153,153,153,Sun Sep  9 20:33:43 2018,600,The main experiment item,yes,FlankerTask.osexp,/Users/hannahrae97/Desktop,no,mono,no,18,no,white,no,yes,768,legacy,73,79,/Users/hannahrae97/Desktop/CTsubject-2.csv,legacy,Kafkaesque Koffka,3.2.5,0,s,NA,s,h,NA,s,440,NA,3894,17968,NA,440,2,legacy,1024,2,48000,-16,experiment,SSSSS,2,even,7410,165448,NA,293747,294951,288356,3490,262446,NA,294843,3503,147478,NA,294951,295393,294835,Flanker Task,140,72589,154,yes,1024
Congruent,90.32258065,90.32258065,470.3612903,470.3612903,black,legacy,legacy,legacy,0,uniform,0,undefined,0,s,0,0,0,154,154,154,0,154,0,154,0,0,0,154,154,154,Sun Sep  9 20:33:43 2018,600,The main experiment item,yes,FlankerTask.osexp,/Users/hannahrae97/Desktop,no,mono,no,18,no,white,no,yes,768,legacy,74,79,/Users/hannahrae97/Desktop/CTsubject-2.csv,legacy,Kafkaesque Koffka,3.2.5,0,h,NA,s,h,NA,h,317,NA,3894,17968,NA,317,2,legacy,1024,2,48000,-16,experiment,SSSSS,2,even,7410,165448,NA,295407,296633,288356,3490,262446,NA,296522,3503,147478,NA,296634,296953,296511,Flanker Task,140,72906,155,yes,1024
Congruent,90.38461538,90.38461538,470.5128205,470.5128205,black,legacy,legacy,legacy,0,uniform,1,undefined,1,s,0,0,0,155,155,155,0,155,0,155,0,0,0,155,155,155,Sun Sep  9 20:33:43 2018,600,The main experiment item,yes,FlankerTask.osexp,/Users/hannahrae97/Desktop,no,mono,no,18,no,white,no,yes,768,legacy,75,79,/Users/hannahrae97/Desktop/CTsubject-2.csv,legacy,Kafkaesque Koffka,3.2.5,0,s,NA,s,h,NA,s,494,NA,3894,17968,NA,494,2,legacy,1024,2,48000,-16,experiment,SSSSS,2,even,7410,165448,NA,297476,298681,296967,3490,262446,NA,298573,3503,147478,NA,298681,299177,298565,Flanker Task,141,73400,156,yes,1024
incongruent,89.8089172,89.8089172,470.1910828,470.1910828,black,legacy,legacy,legacy,0,uniform,0,undefined,0,s,0,0,0,156,156,156,0,156,0,156,0,0,0,156,156,156,Sun Sep  9 20:33:43 2018,600,The main experiment item,yes,FlankerTask.osexp,/Users/hannahrae97/Desktop,no,mono,no,18,no,white,no,yes,768,legacy,76,79,/Users/hannahrae97/Desktop/CTsubject-2.csv,legacy,Kafkaesque Koffka,3.2.5,0,h,NA,s,h,NA,h,420,NA,3894,17968,NA,420,2,legacy,1024,2,48000,-16,experiment,HHSHH,2,even,7410,165448,NA,299188,300398,296967,3490,262446,NA,300286,3503,147478,NA,300398,300820,300277,Flanker Task,141,73820,157,yes,1024
congruent,89.24050633,89.24050633,469.8860759,469.8860759,black,legacy,legacy,legacy,0,uniform,0,undefined,0,h,0,0,0,157,157,157,0,157,0,157,0,0,0,157,157,157,Sun Sep  9 20:33:43 2018,600,The main experiment item,yes,FlankerTask.osexp,/Users/hannahrae97/Desktop,no,mono,no,18,no,white,no,yes,768,legacy,77,79,/Users/hannahrae97/Desktop/CTsubject-2.csv,legacy,Kafkaesque Koffka,3.2.5,0,s,NA,s,h,NA,s,422,NA,3894,17968,NA,422,2,legacy,1024,2,48000,-16,experiment,HHHHH,2,even,7410,165448,NA,301341,302550,300832,3490,262446,NA,302442,3503,147478,NA,302550,302974,302433,Flanker Task,141,74242,158,yes,1024
congruent,89.3081761,89.3081761,469.2704403,469.2704403,black,legacy,legacy,legacy,0,uniform,1,undefined,1,h,0,0,0,158,158,158,0,158,0,158,0,0,0,158,158,158,Sun Sep  9 20:33:43 2018,600,The main experiment item,yes,FlankerTask.osexp,/Users/hannahrae97/Desktop,no,mono,no,18,no,white,no,yes,768,legacy,78,79,/Users/hannahrae97/Desktop/CTsubject-2.csv,legacy,Kafkaesque Koffka,3.2.5,0,h,NA,s,h,NA,h,372,NA,3894,17968,NA,372,2,legacy,1024,2,48000,-16,experiment,HHHHH,2,even,7410,165448,NA,303493,304702,302985,3490,262446,NA,304594,3503,147478,NA,304702,305076,304586,Flanker Task,142,74614,159,yes,1024
incongruent,89.375,89.375,469.0875,469.0875,black,legacy,legacy,legacy,0,uniform,1,undefined,1,s,0,0,0,159,159,159,0,159,0,159,0,0,0,159,159,159,Sun Sep  9 20:33:43 2018,600,The main experiment item,yes,FlankerTask.osexp,/Users/hannahrae97/Desktop,no,mono,no,18,no,white,no,yes,768,legacy,79,79,/Users/hannahrae97/Desktop/CTsubject-2.csv,legacy,Kafkaesque Koffka,3.2.5,0,s,NA,s,h,NA,s,440,NA,3894,17968,NA,440,2,legacy,1024,2,48000,-16,experiment,HHSHH,2,even,7410,165448,NA,305088,306299,302985,3490,262446,NA,306191,3503,147478,NA,306299,306741,306182,Flanker Task,143,75054,160,yes,1024
congruent,89.44099379,89.44099379,468.6459627,468.6459627,black,legacy,legacy,legacy,0,uniform,1,undefined,1,h,0,0,0,160,160,160,0,160,0,160,0,0,0,160,160,160,Sun Sep  9 20:33:43 2018,300,The main experiment item,yes,FlankerTask.osexp,/Users/hannahrae97/Desktop,no,mono,no,18,no,white,no,yes,768,legacy,0,79,/Users/hannahrae97/Desktop/CTsubject-2.csv,legacy,Kafkaesque Koffka,3.2.5,0,h,NA,s,h,h,h,398,NA,3894,17968,8679,398,2,legacy,1024,2,48000,-16,experiment,HHHHH,2,even,7410,165448,316464,306753,316672,302985,3490,262446,NA,316564,3503,147478,307783,316672,317072,316555,Flanker Task,144,75452,161,yes,1024
congruent,89.50617284,89.50617284,468.3209877,468.3209877,black,legacy,legacy,legacy,0,uniform,1,undefined,1,h,0,0,0,161,161,161,0,161,0,161,0,0,0,161,161,161,Sun Sep  9 20:33:43 2018,300,The main experiment item,yes,FlankerTask.osexp,/Users/hannahrae97/Desktop,no,mono,no,18,no,white,no,yes,768,legacy,1,79,/Users/hannahrae97/Desktop/CTsubject-2.csv,legacy,Kafkaesque Koffka,3.2.5,0,h,NA,s,h,h,h,416,NA,3894,17968,8679,416,2,legacy,1024,2,48000,-16,experiment,HHHHH,2,even,7410,165448,316464,317592,318801,302985,3490,317084,NA,318693,3503,147478,307783,318801,319220,318684,Flanker Task,145,75868,162,yes,1024
Congruent,88.95705521,88.95705521,467.1411043,467.1411043,black,legacy,legacy,legacy,0,uniform,0,undefined,0,s,0,0,0,162,162,162,0,162,0,162,0,0,0,162,162,162,Sun Sep  9 20:33:43 2018,300,The main experiment item,yes,FlankerTask.osexp,/Users/hannahrae97/Desktop,no,mono,no,18,no,white,no,yes,768,legacy,2,79,/Users/hannahrae97/Desktop/CTsubject-2.csv,legacy,Kafkaesque Koffka,3.2.5,0,h,NA,s,h,h,h,276,NA,3894,17968,8679,276,2,legacy,1024,2,48000,-16,experiment,SSSSS,2,even,7410,165448,316464,319741,320953,302985,3490,319230,NA,320842,3503,147478,307783,320953,321231,320834,Flanker Task,145,76144,163,yes,1024
Congruent,88.41463415,88.41463415,466.0914634,466.0914634,black,legacy,legacy,legacy,0,uniform,0,undefined,0,s,0,0,0,163,163,163,0,163,0,163,0,0,0,163,163,163,Sun Sep  9 20:33:43 2018,300,The main experiment item,yes,FlankerTask.osexp,/Users/hannahrae97/Desktop,no,mono,no,18,no,white,no,yes,768,legacy,3,79,/Users/hannahrae97/Desktop/CTsubject-2.csv,legacy,Kafkaesque Koffka,3.2.5,0,h,NA,s,h,h,h,295,NA,3894,17968,8679,295,2,legacy,1024,2,48000,-16,experiment,SSSSS,2,even,7410,165448,316464,321753,322966,321241,3490,319230,NA,322858,3503,147478,307783,322966,323264,322849,Flanker Task,145,76439,164,yes,1024
incongruent,88.48484848,88.48484848,465.0787879,465.0787879,black,legacy,legacy,legacy,0,uniform,1,undefined,1,s,0,0,0,164,164,164,0,164,0,164,0,0,0,164,164,164,Sun Sep  9 20:33:43 2018,300,The main experiment item,yes,FlankerTask.osexp,/Users/hannahrae97/Desktop,no,mono,no,18,no,white,no,yes,768,legacy,4,79,/Users/hannahrae97/Desktop/CTsubject-2.csv,legacy,Kafkaesque Koffka,3.2.5,0,s,NA,s,h,h,s,299,NA,3894,17968,8679,299,2,legacy,1024,2,48000,-16,experiment,HHSHH,2,even,7410,165448,316464,323785,324994,323275,3490,319230,NA,324886,3503,147478,307783,324994,325296,324877,Flanker Task,146,76738,165,yes,1024
incongruent,88.55421687,88.55421687,465.2228916,465.2228916,black,legacy,legacy,legacy,0,uniform,1,undefined,1,h,0,0,0,165,165,165,0,165,0,165,0,0,0,165,165,165,Sun Sep  9 20:33:43 2018,300,The main experiment item,yes,FlankerTask.osexp,/Users/hannahrae97/Desktop,no,mono,no,18,no,white,no,yes,768,legacy,5,79,/Users/hannahrae97/Desktop/CTsubject-2.csv,legacy,Kafkaesque Koffka,3.2.5,0,h,NA,s,h,h,h,489,NA,3894,17968,8679,489,2,legacy,1024,2,48000,-16,experiment,SSHSS,2,even,7410,165448,316464,325308,326515,323275,3490,319230,NA,326407,3503,147478,307783,326515,327006,326398,Flanker Task,147,77227,166,yes,1024
congruent,88.0239521,88.0239521,464.0359281,464.0359281,black,legacy,legacy,legacy,0,uniform,0,undefined,0,h,0,0,0,166,166,166,0,166,0,166,0,0,0,166,166,166,Sun Sep  9 20:33:43 2018,300,The main experiment item,yes,FlankerTask.osexp,/Users/hannahrae97/Desktop,no,mono,no,18,no,white,no,yes,768,legacy,6,79,/Users/hannahrae97/Desktop/CTsubject-2.csv,legacy,Kafkaesque Koffka,3.2.5,0,s,NA,s,h,h,s,267,NA,3894,17968,8679,267,2,legacy,1024,2,48000,-16,experiment,HHHHH,2,even,7410,165448,316464,327526,328738,323275,3490,327018,NA,328630,3503,147478,307783,328738,329008,328621,Flanker Task,147,77494,167,yes,1024
congruent,88.0952381,88.0952381,462.9166667,462.9166667,black,legacy,legacy,legacy,0,uniform,1,undefined,1,h,0,0,0,167,167,167,0,167,0,167,0,0,0,167,167,167,Sun Sep  9 20:33:43 2018,300,The main experiment item,yes,FlankerTask.osexp,/Users/hannahrae97/Desktop,no,mono,no,18,no,white,no,yes,768,legacy,7,79,/Users/hannahrae97/Desktop/CTsubject-2.csv,legacy,Kafkaesque Koffka,3.2.5,0,h,NA,s,h,h,h,276,NA,3894,17968,8679,276,2,legacy,1024,2,48000,-16,experiment,HHHHH,2,even,7410,165448,316464,329527,330739,329019,3490,327018,NA,330630,3503,147478,307783,330739,331017,330622,Flanker Task,148,77770,168,yes,1024
