"acc","accuracy","average_response_time","avg_rt","background","canvas_backend","clock_backend","color_backend","compensation","condition","coordinates","correct","correct_instructions1","correct_keyboard_response","correct_response","count_Block1","count_Block2","count_Block3","count_ISI","count_Instructions3","count_error_feedback","count_experiment","count_faster","count_finish","count_fixation","count_instructions1","count_instructions2","count_keyboard_response","count_logger","count_sequence","count_stimulus","datetime","deadline","description","disable_garbage_collection","experiment_file","experiment_path","font_bold","font_family","font_italic","font_size","font_underline","foreground","form_clicks","fullscreen","height","keyboard_backend","live_row","live_row_Block1","logfile","mouse_backend","opensesame_codename","opensesame_version","repeat_cycle","response","response_Instructions3","response_finish","response_instructions1","response_instructions2","response_keyboard_response","response_time","response_time_Instructions3","response_time_finish","response_time_instructions1","response_time_instructions2","response_time_keyboard_response","round_decimals","sampler_backend","sound_buf_size","sound_channels","sound_freq","sound_sample_size","start","stimulus","subject_nr","subject_parity","time_Block1","time_Block2","time_Block3","time_ISI","time_Instructions3","time_error_feedback","time_experiment","time_faster","time_finish","time_fixation","time_instructions1","time_instructions2","time_keyboard_response","time_logger","time_sequence","time_stimulus","title","total_correct","total_response_time","total_responses","uniform_coordinates","width"
"100","100","855","855","black","legacy","legacy","legacy","0","Incongruent","uniform","1","undefined","1","h","0","0","0","0","0","0","0","0","0","0","0","0","0","0","0","0","09/05/18 16:09:00","1500","The main experiment item","yes","Flankertask.osexp","C:/Users/Brad/OneDrive/Desktop/Tarleton school stuff/Fall 2018/Advanced Quantitative Methods","no","mono","no","18","no","white","no","yes","768","legacy","0","0","C:/Users/Brad/OneDrive/Desktop/Tarleton school stuff/Fall 2018/Advanced Quantitative Methods/bh-subject-2.csv","legacy","Kafkaesque Koffka","3.2.5","0","h","NA","NA","s","NA","h","855","NA","NA","129199","NA","855","2","legacy","1024","2","48000","-16","experiment","SSHSS","2","even","132760","NA","NA","NA","NA","NA","3552","NA","NA","132866","3559","NA","132968","133823","132863","132968","Flanker task","1","855","1","yes","1024"
"100","100","685.5","685.5","black","legacy","legacy","legacy","0","Incongruent","uniform","1","undefined","1","h","0","0","0","1","0","1","0","1","0","1","0","0","1","1","1","1","09/05/18 16:09:00","1500","The main experiment item","yes","Flankertask.osexp","C:/Users/Brad/OneDrive/Desktop/Tarleton school stuff/Fall 2018/Advanced Quantitative Methods","no","mono","no","18","no","white","no","yes","768","legacy","1","1","C:/Users/Brad/OneDrive/Desktop/Tarleton school stuff/Fall 2018/Advanced Quantitative Methods/bh-subject-2.csv","legacy","Kafkaesque Koffka","3.2.5","0","h","NA","NA","s","NA","h","516","NA","NA","129199","NA","516","2","legacy","1024","2","48000","-16","experiment","SSHSS","2","even","132760","NA","NA","133839","NA","NA","3552","NA","NA","134905","3559","NA","135007","135523","134902","135006","Flanker task","2","1371","2","yes","1024"
"100","100","622.333333333","622.333333333","black","legacy","legacy","legacy","0","Incongruent","uniform","1","undefined","1","h","0","0","0","2","0","2","0","2","0","2","0","0","2","2","2","2","09/05/18 16:09:00","1500","The main experiment item","yes","Flankertask.osexp","C:/Users/Brad/OneDrive/Desktop/Tarleton school stuff/Fall 2018/Advanced Quantitative Methods","no","mono","no","18","no","white","no","yes","768","legacy","2","2","C:/Users/Brad/OneDrive/Desktop/Tarleton school stuff/Fall 2018/Advanced Quantitative Methods/bh-subject-2.csv","legacy","Kafkaesque Koffka","3.2.5","0","h","NA","NA","s","NA","h","496","NA","NA","129199","NA","496","2","legacy","1024","2","48000","-16","experiment","SSHSS","2","even","132760","NA","NA","135534","NA","NA","3552","NA","NA","136605","3559","NA","136707","137204","136602","136707","Flanker task","3","1867","3","yes","1024"
"75","75","562.5","562.5","black","legacy","legacy","legacy","0","Incongruent","uniform","0","undefined","0","s","0","0","0","3","0","3","0","3","0","3","0","0","3","3","3","3","09/05/18 16:09:00","1500","The main experiment item","yes","Flankertask.osexp","C:/Users/Brad/OneDrive/Desktop/Tarleton school stuff/Fall 2018/Advanced Quantitative Methods","no","mono","no","18","no","white","no","yes","768","legacy","3","3","C:/Users/Brad/OneDrive/Desktop/Tarleton school stuff/Fall 2018/Advanced Quantitative Methods/bh-subject-2.csv","legacy","Kafkaesque Koffka","3.2.5","0","h","NA","NA","s","NA","h","383","NA","NA","129199","NA","383","2","legacy","1024","2","48000","-16","experiment","HHSHH","2","even","132760","NA","NA","137215","NA","NA","3552","NA","NA","138280","3559","NA","138382","138766","138277","138381","Flanker task","3","2250","4","yes","1024"
"80","80","546.2","546.2","black","legacy","legacy","legacy","0","Congruent","uniform","1","undefined","1","s","0","0","0","4","0","4","0","4","0","4","0","0","4","4","4","4","09/05/18 16:09:00","1500","The main experiment item","yes","Flankertask.osexp","C:/Users/Brad/OneDrive/Desktop/Tarleton school stuff/Fall 2018/Advanced Quantitative Methods","no","mono","no","18","no","white","no","yes","768","legacy","4","4","C:/Users/Brad/OneDrive/Desktop/Tarleton school stuff/Fall 2018/Advanced Quantitative Methods/bh-subject-2.csv","legacy","Kafkaesque Koffka","3.2.5","0","s","NA","NA","s","NA","s","481","NA","NA","129199","NA","481","2","legacy","1024","2","48000","-16","experiment","SSSSS","2","even","132760","NA","NA","139281","NA","138778","3552","NA","NA","140346","3559","NA","140448","140930","140343","140447","Flanker task","4","2731","5","yes","1024"
"83.3333333333","83.3333333333","541.333333333","541.333333333","black","legacy","legacy","legacy","0","Incongruent","uniform","1","undefined","1","s","0","0","0","5","0","5","0","5","0","5","0","0","5","5","5","5","09/05/18 16:09:00","1500","The main experiment item","yes","Flankertask.osexp","C:/Users/Brad/OneDrive/Desktop/Tarleton school stuff/Fall 2018/Advanced Quantitative Methods","no","mono","no","18","no","white","no","yes","768","legacy","5","5","C:/Users/Brad/OneDrive/Desktop/Tarleton school stuff/Fall 2018/Advanced Quantitative Methods/bh-subject-2.csv","legacy","Kafkaesque Koffka","3.2.5","0","s","NA","NA","s","NA","s","517","NA","NA","129199","NA","517","2","legacy","1024","2","48000","-16","experiment","HHSHH","2","even","132760","NA","NA","140934","NA","138778","3552","NA","NA","142001","3559","NA","142103","142621","141998","142102","Flanker task","5","3248","6","yes","1024"
"85.7142857143","85.7142857143","522.857142857","522.857142857","black","legacy","legacy","legacy","0","Congruent","uniform","1","undefined","1","s","0","0","0","6","0","6","0","6","0","6","0","0","6","6","6","6","09/05/18 16:09:00","1500","The main experiment item","yes","Flankertask.osexp","C:/Users/Brad/OneDrive/Desktop/Tarleton school stuff/Fall 2018/Advanced Quantitative Methods","no","mono","no","18","no","white","no","yes","768","legacy","6","6","C:/Users/Brad/OneDrive/Desktop/Tarleton school stuff/Fall 2018/Advanced Quantitative Methods/bh-subject-2.csv","legacy","Kafkaesque Koffka","3.2.5","0","s","NA","NA","s","NA","s","412","NA","NA","129199","NA","412","2","legacy","1024","2","48000","-16","experiment","SSSSS","2","even","132760","NA","NA","142632","NA","138778","3552","NA","NA","143698","3559","NA","143800","144212","143695","143800","Flanker task","6","3660","7","yes","1024"
"87.5","87.5","511.5","511.5","black","legacy","legacy","legacy","0","Congruent","uniform","1","undefined","1","s","0","0","0","7","0","7","0","7","0","7","0","0","7","7","7","7","09/05/18 16:09:00","1500","The main experiment item","yes","Flankertask.osexp","C:/Users/Brad/OneDrive/Desktop/Tarleton school stuff/Fall 2018/Advanced Quantitative Methods","no","mono","no","18","no","white","no","yes","768","legacy","7","7","C:/Users/Brad/OneDrive/Desktop/Tarleton school stuff/Fall 2018/Advanced Quantitative Methods/bh-subject-2.csv","legacy","Kafkaesque Koffka","3.2.5","0","s","NA","NA","s","NA","s","432","NA","NA","129199","NA","432","2","legacy","1024","2","48000","-16","experiment","SSSSS","2","even","132760","NA","NA","144223","NA","138778","3552","NA","NA","145288","3559","NA","145390","145822","145285","145390","Flanker task","7","4092","8","yes","1024"
"88.8888888889","88.8888888889","499.555555556","499.555555556","black","legacy","legacy","legacy","0","Congruent","uniform","1","undefined","1","s","0","0","0","8","0","8","0","8","0","8","0","0","8","8","8","8","09/05/18 16:09:00","1500","The main experiment item","yes","Flankertask.osexp","C:/Users/Brad/OneDrive/Desktop/Tarleton school stuff/Fall 2018/Advanced Quantitative Methods","no","mono","no","18","no","white","no","yes","768","legacy","8","8","C:/Users/Brad/OneDrive/Desktop/Tarleton school stuff/Fall 2018/Advanced Quantitative Methods/bh-subject-2.csv","legacy","Kafkaesque Koffka","3.2.5","0","s","NA","NA","s","NA","s","404","NA","NA","129199","NA","404","2","legacy","1024","2","48000","-16","experiment","SSSSS","2","even","132760","NA","NA","145834","NA","138778","3552","NA","NA","146899","3559","NA","147000","147404","146897","147000","Flanker task","8","4496","9","yes","1024"
"90","90","497","497","black","legacy","legacy","legacy","0","Incongruent","uniform","1","undefined","1","h","0","0","0","9","0","9","0","9","0","9","0","0","9","9","9","9","09/05/18 16:09:00","1500","The main experiment item","yes","Flankertask.osexp","C:/Users/Brad/OneDrive/Desktop/Tarleton school stuff/Fall 2018/Advanced Quantitative Methods","no","mono","no","18","no","white","no","yes","768","legacy","9","9","C:/Users/Brad/OneDrive/Desktop/Tarleton school stuff/Fall 2018/Advanced Quantitative Methods/bh-subject-2.csv","legacy","Kafkaesque Koffka","3.2.5","0","h","NA","NA","s","NA","h","474","NA","NA","129199","NA","474","2","legacy","1024","2","48000","-16","experiment","SSHSS","2","even","132760","NA","NA","147416","NA","138778","3552","NA","NA","148486","3559","NA","148587","149061","148484","148587","Flanker task","9","4970","10","yes","1024"
"90.9090909091","90.9090909091","492.545454545","492.545454545","black","legacy","legacy","legacy","0","Incongruent","uniform","1","undefined","1","h","0","0","0","10","0","10","0","10","0","10","0","0","10","10","10","10","09/05/18 16:09:00","1500","The main experiment item","yes","Flankertask.osexp","C:/Users/Brad/OneDrive/Desktop/Tarleton school stuff/Fall 2018/Advanced Quantitative Methods","no","mono","no","18","no","white","no","yes","768","legacy","10","10","C:/Users/Brad/OneDrive/Desktop/Tarleton school stuff/Fall 2018/Advanced Quantitative Methods/bh-subject-2.csv","legacy","Kafkaesque Koffka","3.2.5","0","h","NA","NA","s","NA","h","448","NA","NA","129199","NA","448","2","legacy","1024","2","48000","-16","experiment","SSHSS","2","even","132760","NA","NA","149072","NA","138778","3552","NA","NA","150137","3559","NA","150239","150688","150135","150239","Flanker task","10","5418","11","yes","1024"
"83.3333333333","83.3333333333","487.166666667","487.166666667","black","legacy","legacy","legacy","0","Incongruent","uniform","0","undefined","0","s","0","0","0","11","0","11","0","11","0","11","0","0","11","11","11","11","09/05/18 16:09:00","1500","The main experiment item","yes","Flankertask.osexp","C:/Users/Brad/OneDrive/Desktop/Tarleton school stuff/Fall 2018/Advanced Quantitative Methods","no","mono","no","18","no","white","no","yes","768","legacy","11","11","C:/Users/Brad/OneDrive/Desktop/Tarleton school stuff/Fall 2018/Advanced Quantitative Methods/bh-subject-2.csv","legacy","Kafkaesque Koffka","3.2.5","0","h","NA","NA","s","NA","h","428","NA","NA","129199","NA","428","2","legacy","1024","2","48000","-16","experiment","HHSHH","2","even","132760","NA","NA","150699","NA","138778","3552","NA","NA","151765","3559","NA","151866","152294","151762","151866","Flanker task","10","5846","12","yes","1024"
"84.6153846154","84.6153846154","491.230769231","491.230769231","black","legacy","legacy","legacy","0","Incongruent","uniform","1","undefined","1","h","0","0","0","12","0","12","0","12","0","12","0","0","12","12","12","12","09/05/18 16:09:00","1500","The main experiment item","yes","Flankertask.osexp","C:/Users/Brad/OneDrive/Desktop/Tarleton school stuff/Fall 2018/Advanced Quantitative Methods","no","mono","no","18","no","white","no","yes","768","legacy","12","12","C:/Users/Brad/OneDrive/Desktop/Tarleton school stuff/Fall 2018/Advanced Quantitative Methods/bh-subject-2.csv","legacy","Kafkaesque Koffka","3.2.5","0","h","NA","NA","s","NA","h","540","NA","NA","129199","NA","540","2","legacy","1024","2","48000","-16","experiment","SSHSS","2","even","132760","NA","NA","152807","NA","152306","3552","NA","NA","153876","3559","NA","153978","154518","153873","153977","Flanker task","11","6386","13","yes","1024"
"85.7142857143","85.7142857143","486","486","black","legacy","legacy","legacy","0","Congruent","uniform","1","undefined","1","s","0","0","0","13","0","13","0","13","0","13","0","0","13","13","13","13","09/05/18 16:09:00","1500","The main experiment item","yes","Flankertask.osexp","C:/Users/Brad/OneDrive/Desktop/Tarleton school stuff/Fall 2018/Advanced Quantitative Methods","no","mono","no","18","no","white","no","yes","768","legacy","13","13","C:/Users/Brad/OneDrive/Desktop/Tarleton school stuff/Fall 2018/Advanced Quantitative Methods/bh-subject-2.csv","legacy","Kafkaesque Koffka","3.2.5","0","s","NA","NA","s","NA","s","418","NA","NA","129199","NA","418","2","legacy","1024","2","48000","-16","experiment","SSSSS","2","even","132760","NA","NA","154529","NA","152306","3552","NA","NA","155594","3559","NA","155695","156114","155591","155695","Flanker task","12","6804","14","yes","1024"
"86.6666666667","86.6666666667","485.533333333","485.533333333","black","legacy","legacy","legacy","0","Congruent","uniform","1","undefined","1","s","0","0","0","14","0","14","0","14","0","14","0","0","14","14","14","14","09/05/18 16:09:00","1500","The main experiment item","yes","Flankertask.osexp","C:/Users/Brad/OneDrive/Desktop/Tarleton school stuff/Fall 2018/Advanced Quantitative Methods","no","mono","no","18","no","white","no","yes","768","legacy","14","14","C:/Users/Brad/OneDrive/Desktop/Tarleton school stuff/Fall 2018/Advanced Quantitative Methods/bh-subject-2.csv","legacy","Kafkaesque Koffka","3.2.5","0","s","NA","NA","s","NA","s","479","NA","NA","129199","NA","479","2","legacy","1024","2","48000","-16","experiment","SSSSS","2","even","132760","NA","NA","156125","NA","152306","3552","NA","NA","157205","3559","NA","157307","157787","157202","157306","Flanker task","13","7283","15","yes","1024"
"87.5","87.5","482.3125","482.3125","black","legacy","legacy","legacy","0","Congruent","uniform","1","undefined","1","s","0","0","0","15","0","15","0","15","0","15","0","0","15","15","15","15","09/05/18 16:09:00","1500","The main experiment item","yes","Flankertask.osexp","C:/Users/Brad/OneDrive/Desktop/Tarleton school stuff/Fall 2018/Advanced Quantitative Methods","no","mono","no","18","no","white","no","yes","768","legacy","15","15","C:/Users/Brad/OneDrive/Desktop/Tarleton school stuff/Fall 2018/Advanced Quantitative Methods/bh-subject-2.csv","legacy","Kafkaesque Koffka","3.2.5","0","s","NA","NA","s","NA","s","434","NA","NA","129199","NA","434","2","legacy","1024","2","48000","-16","experiment","SSSSS","2","even","132760","NA","NA","157798","NA","152306","3552","NA","NA","158864","3559","NA","158965","159399","158861","158965","Flanker task","14","7717","16","yes","1024"
"88.2352941176","88.2352941176","486.588235294","486.588235294","black","legacy","legacy","legacy","0","Incongruent","uniform","1","undefined","1","s","0","0","0","16","0","16","0","16","0","16","0","0","16","16","16","16","09/05/18 16:09:00","1500","The main experiment item","yes","Flankertask.osexp","C:/Users/Brad/OneDrive/Desktop/Tarleton school stuff/Fall 2018/Advanced Quantitative Methods","no","mono","no","18","no","white","no","yes","768","legacy","16","16","C:/Users/Brad/OneDrive/Desktop/Tarleton school stuff/Fall 2018/Advanced Quantitative Methods/bh-subject-2.csv","legacy","Kafkaesque Koffka","3.2.5","0","s","NA","NA","s","NA","s","555","NA","NA","129199","NA","555","2","legacy","1024","2","48000","-16","experiment","HHSHH","2","even","132760","NA","NA","159410","NA","152306","3552","NA","NA","160477","3559","NA","160579","161135","160474","160579","Flanker task","15","8272","17","yes","1024"
"88.8888888889","88.8888888889","485.5","485.5","black","legacy","legacy","legacy","0","Incongruent","uniform","1","undefined","1","s","0","0","0","17","0","17","0","17","0","17","0","0","17","17","17","17","09/05/18 16:09:00","1500","The main experiment item","yes","Flankertask.osexp","C:/Users/Brad/OneDrive/Desktop/Tarleton school stuff/Fall 2018/Advanced Quantitative Methods","no","mono","no","18","no","white","no","yes","768","legacy","17","17","C:/Users/Brad/OneDrive/Desktop/Tarleton school stuff/Fall 2018/Advanced Quantitative Methods/bh-subject-2.csv","legacy","Kafkaesque Koffka","3.2.5","0","s","NA","NA","s","NA","s","467","NA","NA","129199","NA","467","2","legacy","1024","2","48000","-16","experiment","HHSHH","2","even","132760","NA","NA","161146","NA","152306","3552","NA","NA","162211","3559","NA","162313","162781","162209","162313","Flanker task","16","8739","18","yes","1024"
"89.4736842105","89.4736842105","485.052631579","485.052631579","black","legacy","legacy","legacy","0","Incongruent","uniform","1","undefined","1","h","0","0","0","18","0","18","0","18","0","18","0","0","18","18","18","18","09/05/18 16:09:00","1500","The main experiment item","yes","Flankertask.osexp","C:/Users/Brad/OneDrive/Desktop/Tarleton school stuff/Fall 2018/Advanced Quantitative Methods","no","mono","no","18","no","white","no","yes","768","legacy","18","18","C:/Users/Brad/OneDrive/Desktop/Tarleton school stuff/Fall 2018/Advanced Quantitative Methods/bh-subject-2.csv","legacy","Kafkaesque Koffka","3.2.5","0","h","NA","NA","s","NA","h","477","NA","NA","129199","NA","477","2","legacy","1024","2","48000","-16","experiment","SSHSS","2","even","132760","NA","NA","162785","NA","152306","3552","NA","NA","163850","3559","NA","163951","164428","163847","163951","Flanker task","17","9216","19","yes","1024"
"90","90","484.15","484.15","black","legacy","legacy","legacy","0","Congruent","uniform","1","undefined","1","s","0","0","0","19","0","19","0","19","0","19","0","0","19","19","19","19","09/05/18 16:09:00","1500","The main experiment item","yes","Flankertask.osexp","C:/Users/Brad/OneDrive/Desktop/Tarleton school stuff/Fall 2018/Advanced Quantitative Methods","no","mono","no","18","no","white","no","yes","768","legacy","19","19","C:/Users/Brad/OneDrive/Desktop/Tarleton school stuff/Fall 2018/Advanced Quantitative Methods/bh-subject-2.csv","legacy","Kafkaesque Koffka","3.2.5","0","s","NA","NA","s","NA","s","467","NA","NA","129199","NA","467","2","legacy","1024","2","48000","-16","experiment","SSSSS","2","even","132760","NA","NA","164439","NA","152306","3552","NA","NA","165504","3559","NA","165605","166073","165502","165605","Flanker task","18","9683","20","yes","1024"
"90.4761904762","90.4761904762","482.523809524","482.523809524","black","legacy","legacy","legacy","0","Incongruent","uniform","1","undefined","1","s","0","0","0","20","0","20","0","20","0","20","0","0","20","20","20","20","09/05/18 16:09:00","1500","The main experiment item","yes","Flankertask.osexp","C:/Users/Brad/OneDrive/Desktop/Tarleton school stuff/Fall 2018/Advanced Quantitative Methods","no","mono","no","18","no","white","no","yes","768","legacy","20","20","C:/Users/Brad/OneDrive/Desktop/Tarleton school stuff/Fall 2018/Advanced Quantitative Methods/bh-subject-2.csv","legacy","Kafkaesque Koffka","3.2.5","0","s","NA","NA","s","NA","s","450","NA","NA","129199","NA","450","2","legacy","1024","2","48000","-16","experiment","HHSHH","2","even","132760","NA","NA","166084","NA","152306","3552","NA","NA","167160","3559","NA","167261","167711","167157","167261","Flanker task","19","10133","21","yes","1024"
"90.9090909091","90.9090909091","479.909090909","479.909090909","black","legacy","legacy","legacy","0","Congruent","uniform","1","undefined","1","h","0","0","0","21","0","21","0","21","0","21","0","0","21","21","21","21","09/05/18 16:09:00","1500","The main experiment item","yes","Flankertask.osexp","C:/Users/Brad/OneDrive/Desktop/Tarleton school stuff/Fall 2018/Advanced Quantitative Methods","no","mono","no","18","no","white","no","yes","768","legacy","21","21","C:/Users/Brad/OneDrive/Desktop/Tarleton school stuff/Fall 2018/Advanced Quantitative Methods/bh-subject-2.csv","legacy","Kafkaesque Koffka","3.2.5","0","h","NA","NA","s","NA","h","425","NA","NA","129199","NA","425","2","legacy","1024","2","48000","-16","experiment","HHHHH","2","even","132760","NA","NA","167724","NA","152306","3552","NA","NA","168794","3559","NA","168895","169321","168792","168895","Flanker task","20","10558","22","yes","1024"
"86.9565217391","86.9565217391","477.260869565","477.260869565","black","legacy","legacy","legacy","0","Incongruent","uniform","0","undefined","0","h","0","0","0","22","0","22","0","22","0","22","0","0","22","22","22","22","09/05/18 16:09:00","1500","The main experiment item","yes","Flankertask.osexp","C:/Users/Brad/OneDrive/Desktop/Tarleton school stuff/Fall 2018/Advanced Quantitative Methods","no","mono","no","18","no","white","no","yes","768","legacy","22","22","C:/Users/Brad/OneDrive/Desktop/Tarleton school stuff/Fall 2018/Advanced Quantitative Methods/bh-subject-2.csv","legacy","Kafkaesque Koffka","3.2.5","0","s","NA","NA","s","NA","s","419","NA","NA","129199","NA","419","2","legacy","1024","2","48000","-16","experiment","SSHSS","2","even","132760","NA","NA","169332","NA","152306","3552","NA","NA","170397","3559","NA","170499","170918","170394","170499","Flanker task","20","10977","23","yes","1024"
"87.5","87.5","478.291666667","478.291666667","black","legacy","legacy","legacy","0","Incongruent","uniform","1","undefined","1","s","0","0","0","23","0","23","0","23","0","23","0","0","23","23","23","23","09/05/18 16:09:00","1500","The main experiment item","yes","Flankertask.osexp","C:/Users/Brad/OneDrive/Desktop/Tarleton school stuff/Fall 2018/Advanced Quantitative Methods","no","mono","no","18","no","white","no","yes","768","legacy","23","23","C:/Users/Brad/OneDrive/Desktop/Tarleton school stuff/Fall 2018/Advanced Quantitative Methods/bh-subject-2.csv","legacy","Kafkaesque Koffka","3.2.5","0","s","NA","NA","s","NA","s","502","NA","NA","129199","NA","502","2","legacy","1024","2","48000","-16","experiment","HHSHH","2","even","132760","NA","NA","171432","NA","170929","3552","NA","NA","172497","3559","NA","172598","173101","172494","172598","Flanker task","21","11479","24","yes","1024"
"88","88","478.4","478.4","black","legacy","legacy","legacy","0","Congruent","uniform","1","undefined","1","s","0","0","0","24","0","24","0","24","0","24","0","0","24","24","24","24","09/05/18 16:09:00","1500","The main experiment item","yes","Flankertask.osexp","C:/Users/Brad/OneDrive/Desktop/Tarleton school stuff/Fall 2018/Advanced Quantitative Methods","no","mono","no","18","no","white","no","yes","768","legacy","24","24","C:/Users/Brad/OneDrive/Desktop/Tarleton school stuff/Fall 2018/Advanced Quantitative Methods/bh-subject-2.csv","legacy","Kafkaesque Koffka","3.2.5","0","s","NA","NA","s","NA","s","481","NA","NA","129199","NA","481","2","legacy","1024","2","48000","-16","experiment","SSSSS","2","even","132760","NA","NA","173112","NA","170929","3552","NA","NA","174178","3559","NA","174280","174761","174175","174279","Flanker task","22","11960","25","yes","1024"
"88.4615384615","88.4615384615","478.230769231","478.230769231","black","legacy","legacy","legacy","0","Incongruent","uniform","1","undefined","1","s","0","0","0","25","0","25","0","25","0","25","0","0","25","25","25","25","09/05/18 16:09:00","1500","The main experiment item","yes","Flankertask.osexp","C:/Users/Brad/OneDrive/Desktop/Tarleton school stuff/Fall 2018/Advanced Quantitative Methods","no","mono","no","18","no","white","no","yes","768","legacy","25","25","C:/Users/Brad/OneDrive/Desktop/Tarleton school stuff/Fall 2018/Advanced Quantitative Methods/bh-subject-2.csv","legacy","Kafkaesque Koffka","3.2.5","0","s","NA","NA","s","NA","s","474","NA","NA","129199","NA","474","2","legacy","1024","2","48000","-16","experiment","HHSHH","2","even","132760","NA","NA","174772","NA","170929","3552","NA","NA","175842","3559","NA","175943","176417","175840","175943","Flanker task","23","12434","26","yes","1024"
"88.8888888889","88.8888888889","477.666666667","477.666666667","black","legacy","legacy","legacy","0","Congruent","uniform","1","undefined","1","s","0","0","0","26","0","26","0","26","0","26","0","0","26","26","26","26","09/05/18 16:09:00","1500","The main experiment item","yes","Flankertask.osexp","C:/Users/Brad/OneDrive/Desktop/Tarleton school stuff/Fall 2018/Advanced Quantitative Methods","no","mono","no","18","no","white","no","yes","768","legacy","26","26","C:/Users/Brad/OneDrive/Desktop/Tarleton school stuff/Fall 2018/Advanced Quantitative Methods/bh-subject-2.csv","legacy","Kafkaesque Koffka","3.2.5","0","s","NA","NA","s","NA","s","463","NA","NA","129199","NA","463","2","legacy","1024","2","48000","-16","experiment","SSSSS","2","even","132760","NA","NA","176422","NA","170929","3552","NA","NA","177488","3559","NA","177590","178054","177485","177589","Flanker task","24","12897","27","yes","1024"
"89.2857142857","89.2857142857","481.142857143","481.142857143","black","legacy","legacy","legacy","0","Incongruent","uniform","1","undefined","1","h","0","0","0","27","0","27","0","27","0","27","0","0","27","27","27","27","09/05/18 16:09:00","1500","The main experiment item","yes","Flankertask.osexp","C:/Users/Brad/OneDrive/Desktop/Tarleton school stuff/Fall 2018/Advanced Quantitative Methods","no","mono","no","18","no","white","no","yes","768","legacy","27","27","C:/Users/Brad/OneDrive/Desktop/Tarleton school stuff/Fall 2018/Advanced Quantitative Methods/bh-subject-2.csv","legacy","Kafkaesque Koffka","3.2.5","0","h","NA","NA","s","NA","h","575","NA","NA","129199","NA","575","2","legacy","1024","2","48000","-16","experiment","SSHSS","2","even","132760","NA","NA","178065","NA","170929","3552","NA","NA","179130","3559","NA","179231","179806","179128","179231","Flanker task","25","13472","28","yes","1024"
"89.6551724138","89.6551724138","483.551724138","483.551724138","black","legacy","legacy","legacy","0","Incongruent","uniform","1","undefined","1","h","0","0","0","28","0","28","0","28","0","28","0","0","28","28","28","28","09/05/18 16:09:00","1500","The main experiment item","yes","Flankertask.osexp","C:/Users/Brad/OneDrive/Desktop/Tarleton school stuff/Fall 2018/Advanced Quantitative Methods","no","mono","no","18","no","white","no","yes","768","legacy","28","28","C:/Users/Brad/OneDrive/Desktop/Tarleton school stuff/Fall 2018/Advanced Quantitative Methods/bh-subject-2.csv","legacy","Kafkaesque Koffka","3.2.5","0","h","NA","NA","s","NA","h","551","NA","NA","129199","NA","551","2","legacy","1024","2","48000","-16","experiment","SSHSS","2","even","132760","NA","NA","179817","NA","170929","3552","NA","NA","180883","3559","NA","180987","181539","180880","180987","Flanker task","26","14023","29","yes","1024"
"90","90","485.833333333","485.833333333","black","legacy","legacy","legacy","0","Incongruent","uniform","1","undefined","1","h","0","0","0","29","0","29","0","29","0","29","0","0","29","29","29","29","09/05/18 16:09:00","1500","The main experiment item","yes","Flankertask.osexp","C:/Users/Brad/OneDrive/Desktop/Tarleton school stuff/Fall 2018/Advanced Quantitative Methods","no","mono","no","18","no","white","no","yes","768","legacy","29","29","C:/Users/Brad/OneDrive/Desktop/Tarleton school stuff/Fall 2018/Advanced Quantitative Methods/bh-subject-2.csv","legacy","Kafkaesque Koffka","3.2.5","0","h","NA","NA","s","NA","h","552","NA","NA","129199","NA","552","2","legacy","1024","2","48000","-16","experiment","SSHSS","2","even","132760","NA","NA","181550","NA","170929","3552","NA","NA","182615","3559","NA","182717","183269","182612","182717","Flanker task","27","14575","30","yes","1024"
"90.3225806452","90.3225806452","484.64516129","484.64516129","black","legacy","legacy","legacy","0","Congruent","uniform","1","undefined","1","h","0","0","0","30","0","30","0","30","0","30","0","0","30","30","30","30","09/05/18 16:09:00","1500","The main experiment item","yes","Flankertask.osexp","C:/Users/Brad/OneDrive/Desktop/Tarleton school stuff/Fall 2018/Advanced Quantitative Methods","no","mono","no","18","no","white","no","yes","768","legacy","30","30","C:/Users/Brad/OneDrive/Desktop/Tarleton school stuff/Fall 2018/Advanced Quantitative Methods/bh-subject-2.csv","legacy","Kafkaesque Koffka","3.2.5","0","h","NA","NA","s","NA","h","449","NA","NA","129199","NA","449","2","legacy","1024","2","48000","-16","experiment","HHHHH","2","even","132760","NA","NA","183274","NA","170929","3552","NA","NA","184340","3559","NA","184442","184892","184337","184441","Flanker task","28","15024","31","yes","1024"
"90.625","90.625","488.40625","488.40625","black","legacy","legacy","legacy","0","Incongruent","uniform","1","undefined","1","h","0","0","0","31","0","31","0","31","0","31","0","0","31","31","31","31","09/05/18 16:09:00","1500","The main experiment item","yes","Flankertask.osexp","C:/Users/Brad/OneDrive/Desktop/Tarleton school stuff/Fall 2018/Advanced Quantitative Methods","no","mono","no","18","no","white","no","yes","768","legacy","31","31","C:/Users/Brad/OneDrive/Desktop/Tarleton school stuff/Fall 2018/Advanced Quantitative Methods/bh-subject-2.csv","legacy","Kafkaesque Koffka","3.2.5","0","h","NA","NA","s","NA","h","605","NA","NA","129199","NA","605","2","legacy","1024","2","48000","-16","experiment","SSHSS","2","even","132760","NA","NA","184903","NA","170929","3552","NA","NA","185968","3559","NA","186071","186677","185966","186070","Flanker task","29","15629","32","yes","1024"
"90.9090909091","90.9090909091","488.696969697","488.696969697","black","legacy","legacy","legacy","0","Congruent","uniform","1","undefined","1","h","0","0","0","32","0","32","0","32","0","32","0","0","32","32","32","32","09/05/18 16:09:00","1500","The main experiment item","yes","Flankertask.osexp","C:/Users/Brad/OneDrive/Desktop/Tarleton school stuff/Fall 2018/Advanced Quantitative Methods","no","mono","no","18","no","white","no","yes","768","legacy","32","32","C:/Users/Brad/OneDrive/Desktop/Tarleton school stuff/Fall 2018/Advanced Quantitative Methods/bh-subject-2.csv","legacy","Kafkaesque Koffka","3.2.5","0","h","NA","NA","s","NA","h","498","NA","NA","129199","NA","498","2","legacy","1024","2","48000","-16","experiment","HHHHH","2","even","132760","NA","NA","186681","NA","170929","3552","NA","NA","187755","3559","NA","187857","188355","187751","187857","Flanker task","30","16127","33","yes","1024"
"91.1764705882","91.1764705882","487.205882353","487.205882353","black","legacy","legacy","legacy","0","Congruent","uniform","1","undefined","1","h","0","0","0","33","0","33","0","33","0","33","0","0","33","33","33","33","09/05/18 16:09:00","1500","The main experiment item","yes","Flankertask.osexp","C:/Users/Brad/OneDrive/Desktop/Tarleton school stuff/Fall 2018/Advanced Quantitative Methods","no","mono","no","18","no","white","no","yes","768","legacy","33","33","C:/Users/Brad/OneDrive/Desktop/Tarleton school stuff/Fall 2018/Advanced Quantitative Methods/bh-subject-2.csv","legacy","Kafkaesque Koffka","3.2.5","0","h","NA","NA","s","NA","h","438","NA","NA","129199","NA","438","2","legacy","1024","2","48000","-16","experiment","HHHHH","2","even","132760","NA","NA","188367","NA","170929","3552","NA","NA","189435","3559","NA","189537","189976","189432","189536","Flanker task","31","16565","34","yes","1024"
"91.4285714286","91.4285714286","486.914285714","486.914285714","black","legacy","legacy","legacy","0","Incongruent","uniform","1","undefined","1","s","0","0","0","34","0","34","0","34","0","34","0","0","34","34","34","34","09/05/18 16:09:00","1500","The main experiment item","yes","Flankertask.osexp","C:/Users/Brad/OneDrive/Desktop/Tarleton school stuff/Fall 2018/Advanced Quantitative Methods","no","mono","no","18","no","white","no","yes","768","legacy","34","34","C:/Users/Brad/OneDrive/Desktop/Tarleton school stuff/Fall 2018/Advanced Quantitative Methods/bh-subject-2.csv","legacy","Kafkaesque Koffka","3.2.5","0","s","NA","NA","s","NA","s","477","NA","NA","129199","NA","477","2","legacy","1024","2","48000","-16","experiment","HHSHH","2","even","132760","NA","NA","189987","NA","170929","3552","NA","NA","191052","3559","NA","191154","191632","191050","191154","Flanker task","32","17042","35","yes","1024"
"91.6666666667","91.6666666667","487.805555556","487.805555556","black","legacy","legacy","legacy","0","Congruent","uniform","1","undefined","1","h","0","0","0","35","0","35","0","35","0","35","0","0","35","35","35","35","09/05/18 16:09:00","1500","The main experiment item","yes","Flankertask.osexp","C:/Users/Brad/OneDrive/Desktop/Tarleton school stuff/Fall 2018/Advanced Quantitative Methods","no","mono","no","18","no","white","no","yes","768","legacy","35","35","C:/Users/Brad/OneDrive/Desktop/Tarleton school stuff/Fall 2018/Advanced Quantitative Methods/bh-subject-2.csv","legacy","Kafkaesque Koffka","3.2.5","0","h","NA","NA","s","NA","h","519","NA","NA","129199","NA","519","2","legacy","1024","2","48000","-16","experiment","HHHHH","2","even","132760","NA","NA","191643","NA","170929","3552","NA","NA","192712","3559","NA","192814","193334","192709","192813","Flanker task","33","17561","36","yes","1024"
"91.8918918919","91.8918918919","487.027027027","487.027027027","black","legacy","legacy","legacy","0","Congruent","uniform","1","undefined","1","h","0","0","0","36","0","36","0","36","0","36","0","0","36","36","36","36","09/05/18 16:09:00","1500","The main experiment item","yes","Flankertask.osexp","C:/Users/Brad/OneDrive/Desktop/Tarleton school stuff/Fall 2018/Advanced Quantitative Methods","no","mono","no","18","no","white","no","yes","768","legacy","36","36","C:/Users/Brad/OneDrive/Desktop/Tarleton school stuff/Fall 2018/Advanced Quantitative Methods/bh-subject-2.csv","legacy","Kafkaesque Koffka","3.2.5","0","h","NA","NA","s","NA","h","459","NA","NA","129199","NA","459","2","legacy","1024","2","48000","-16","experiment","HHHHH","2","even","132760","NA","NA","193345","NA","170929","3552","NA","NA","194409","3559","NA","194510","194970","194406","194510","Flanker task","34","18020","37","yes","1024"
"92.1052631579","92.1052631579","486.105263158","486.105263158","black","legacy","legacy","legacy","0","Congruent","uniform","1","undefined","1","h","0","0","0","37","0","37","0","37","0","37","0","0","37","37","37","37","09/05/18 16:09:00","1500","The main experiment item","yes","Flankertask.osexp","C:/Users/Brad/OneDrive/Desktop/Tarleton school stuff/Fall 2018/Advanced Quantitative Methods","no","mono","no","18","no","white","no","yes","768","legacy","37","37","C:/Users/Brad/OneDrive/Desktop/Tarleton school stuff/Fall 2018/Advanced Quantitative Methods/bh-subject-2.csv","legacy","Kafkaesque Koffka","3.2.5","0","h","NA","NA","s","NA","h","452","NA","NA","129199","NA","452","2","legacy","1024","2","48000","-16","experiment","HHHHH","2","even","132760","NA","NA","194981","NA","170929","3552","NA","NA","196045","3559","NA","196146","196599","196042","196146","Flanker task","35","18472","38","yes","1024"
"92.3076923077","92.3076923077","486.743589744","486.743589744","black","legacy","legacy","legacy","0","Incongruent","uniform","1","undefined","1","s","0","0","0","38","0","38","0","38","0","38","0","0","38","38","38","38","09/05/18 16:09:00","1500","The main experiment item","yes","Flankertask.osexp","C:/Users/Brad/OneDrive/Desktop/Tarleton school stuff/Fall 2018/Advanced Quantitative Methods","no","mono","no","18","no","white","no","yes","768","legacy","38","38","C:/Users/Brad/OneDrive/Desktop/Tarleton school stuff/Fall 2018/Advanced Quantitative Methods/bh-subject-2.csv","legacy","Kafkaesque Koffka","3.2.5","0","s","NA","NA","s","NA","s","511","NA","NA","129199","NA","511","2","legacy","1024","2","48000","-16","experiment","HHSHH","2","even","132760","NA","NA","196610","NA","170929","3552","NA","NA","197697","3559","NA","197799","198310","197694","197798","Flanker task","36","18983","39","yes","1024"
"92.5","92.5","484.85","484.85","black","legacy","legacy","legacy","0","Incongruent","uniform","1","undefined","1","s","0","0","0","39","0","39","0","39","0","39","0","0","39","39","39","39","09/05/18 16:09:00","1500","The main experiment item","yes","Flankertask.osexp","C:/Users/Brad/OneDrive/Desktop/Tarleton school stuff/Fall 2018/Advanced Quantitative Methods","no","mono","no","18","no","white","no","yes","768","legacy","39","39","C:/Users/Brad/OneDrive/Desktop/Tarleton school stuff/Fall 2018/Advanced Quantitative Methods/bh-subject-2.csv","legacy","Kafkaesque Koffka","3.2.5","0","s","NA","NA","s","NA","s","411","NA","NA","129199","NA","411","2","legacy","1024","2","48000","-16","experiment","HHSHH","2","even","132760","NA","NA","198322","NA","170929","3552","NA","NA","199387","3559","NA","199488","199900","199384","199488","Flanker task","37","19394","40","yes","1024"
"92.6829268293","92.6829268293","485.804878049","485.804878049","black","legacy","legacy","legacy","0","Incongruent","uniform","1","undefined","1","h","0","0","0","40","0","40","0","40","0","40","0","0","40","40","40","40","09/05/18 16:09:00","1500","The main experiment item","yes","Flankertask.osexp","C:/Users/Brad/OneDrive/Desktop/Tarleton school stuff/Fall 2018/Advanced Quantitative Methods","no","mono","no","18","no","white","no","yes","768","legacy","40","40","C:/Users/Brad/OneDrive/Desktop/Tarleton school stuff/Fall 2018/Advanced Quantitative Methods/bh-subject-2.csv","legacy","Kafkaesque Koffka","3.2.5","0","h","NA","NA","s","NA","h","524","NA","NA","129199","NA","524","2","legacy","1024","2","48000","-16","experiment","SSHSS","2","even","132760","NA","NA","199912","NA","170929","3552","NA","NA","200977","3559","NA","201079","201604","200974","201078","Flanker task","38","19918","41","yes","1024"
"92.8571428571","92.8571428571","487.523809524","487.523809524","black","legacy","legacy","legacy","0","Congruent","uniform","1","undefined","1","s","0","0","0","41","0","41","0","41","0","41","0","0","41","41","41","41","09/05/18 16:09:00","1500","The main experiment item","yes","Flankertask.osexp","C:/Users/Brad/OneDrive/Desktop/Tarleton school stuff/Fall 2018/Advanced Quantitative Methods","no","mono","no","18","no","white","no","yes","768","legacy","41","41","C:/Users/Brad/OneDrive/Desktop/Tarleton school stuff/Fall 2018/Advanced Quantitative Methods/bh-subject-2.csv","legacy","Kafkaesque Koffka","3.2.5","0","s","NA","NA","s","NA","s","558","NA","NA","129199","NA","558","2","legacy","1024","2","48000","-16","experiment","SSSSS","2","even","132760","NA","NA","201615","NA","170929","3552","NA","NA","202690","3559","NA","202792","203351","202687","202792","Flanker task","39","20476","42","yes","1024"
"93.023255814","93.023255814","487.255813953","487.255813953","black","legacy","legacy","legacy","0","Congruent","uniform","1","undefined","1","h","0","0","0","42","0","42","0","42","0","42","0","0","42","42","42","42","09/05/18 16:09:00","1500","The main experiment item","yes","Flankertask.osexp","C:/Users/Brad/OneDrive/Desktop/Tarleton school stuff/Fall 2018/Advanced Quantitative Methods","no","mono","no","18","no","white","no","yes","768","legacy","42","42","C:/Users/Brad/OneDrive/Desktop/Tarleton school stuff/Fall 2018/Advanced Quantitative Methods/bh-subject-2.csv","legacy","Kafkaesque Koffka","3.2.5","0","h","NA","NA","s","NA","h","476","NA","NA","129199","NA","476","2","legacy","1024","2","48000","-16","experiment","HHHHH","2","even","132760","NA","NA","203362","NA","170929","3552","NA","NA","204427","3559","NA","204529","205006","204424","204529","Flanker task","40","20952","43","yes","1024"
"93.1818181818","93.1818181818","487.090909091","487.090909091","black","legacy","legacy","legacy","0","Congruent","uniform","1","undefined","1","h","0","0","0","43","0","43","0","43","0","43","0","0","43","43","43","43","09/05/18 16:09:00","1500","The main experiment item","yes","Flankertask.osexp","C:/Users/Brad/OneDrive/Desktop/Tarleton school stuff/Fall 2018/Advanced Quantitative Methods","no","mono","no","18","no","white","no","yes","768","legacy","43","43","C:/Users/Brad/OneDrive/Desktop/Tarleton school stuff/Fall 2018/Advanced Quantitative Methods/bh-subject-2.csv","legacy","Kafkaesque Koffka","3.2.5","0","h","NA","NA","s","NA","h","480","NA","NA","129199","NA","480","2","legacy","1024","2","48000","-16","experiment","HHHHH","2","even","132760","NA","NA","205017","NA","170929","3552","NA","NA","206083","3559","NA","206185","206666","206080","206184","Flanker task","41","21432","44","yes","1024"
"93.3333333333","93.3333333333","486.711111111","486.711111111","black","legacy","legacy","legacy","0","Congruent","uniform","1","undefined","1","h","0","0","0","44","0","44","0","44","0","44","0","0","44","44","44","44","09/05/18 16:09:00","1500","The main experiment item","yes","Flankertask.osexp","C:/Users/Brad/OneDrive/Desktop/Tarleton school stuff/Fall 2018/Advanced Quantitative Methods","no","mono","no","18","no","white","no","yes","768","legacy","44","44","C:/Users/Brad/OneDrive/Desktop/Tarleton school stuff/Fall 2018/Advanced Quantitative Methods/bh-subject-2.csv","legacy","Kafkaesque Koffka","3.2.5","0","h","NA","NA","s","NA","h","470","NA","NA","129199","NA","470","2","legacy","1024","2","48000","-16","experiment","HHHHH","2","even","132760","NA","NA","206677","NA","170929","3552","NA","NA","207744","3559","NA","207845","208316","207741","207845","Flanker task","42","21902","45","yes","1024"
"93.4782608696","93.4782608696","485.282608696","485.282608696","black","legacy","legacy","legacy","0","Congruent","uniform","1","undefined","1","s","0","0","0","45","0","45","0","45","0","45","0","0","45","45","45","45","09/05/18 16:09:00","1500","The main experiment item","yes","Flankertask.osexp","C:/Users/Brad/OneDrive/Desktop/Tarleton school stuff/Fall 2018/Advanced Quantitative Methods","no","mono","no","18","no","white","no","yes","768","legacy","45","45","C:/Users/Brad/OneDrive/Desktop/Tarleton school stuff/Fall 2018/Advanced Quantitative Methods/bh-subject-2.csv","legacy","Kafkaesque Koffka","3.2.5","0","s","NA","NA","s","NA","s","421","NA","NA","129199","NA","421","2","legacy","1024","2","48000","-16","experiment","SSSSS","2","even","132760","NA","NA","208328","NA","170929","3552","NA","NA","209395","3559","NA","209497","209919","209392","209496","Flanker task","43","22323","46","yes","1024"
"93.6170212766","93.6170212766","486","486","black","legacy","legacy","legacy","0","Incongruent","uniform","1","undefined","1","h","0","0","0","46","0","46","0","46","0","46","0","0","46","46","46","46","09/05/18 16:09:00","1500","The main experiment item","yes","Flankertask.osexp","C:/Users/Brad/OneDrive/Desktop/Tarleton school stuff/Fall 2018/Advanced Quantitative Methods","no","mono","no","18","no","white","no","yes","768","legacy","46","46","C:/Users/Brad/OneDrive/Desktop/Tarleton school stuff/Fall 2018/Advanced Quantitative Methods/bh-subject-2.csv","legacy","Kafkaesque Koffka","3.2.5","0","h","NA","NA","s","NA","h","519","NA","NA","129199","NA","519","2","legacy","1024","2","48000","-16","experiment","SSHSS","2","even","132760","NA","NA","209930","NA","170929","3552","NA","NA","210994","3559","NA","211095","211615","210991","211095","Flanker task","44","22842","47","yes","1024"
"93.75","93.75","485.1875","485.1875","black","legacy","legacy","legacy","0","Congruent","uniform","1","undefined","1","s","0","0","0","47","0","47","0","47","0","47","0","0","47","47","47","47","09/05/18 16:09:00","1500","The main experiment item","yes","Flankertask.osexp","C:/Users/Brad/OneDrive/Desktop/Tarleton school stuff/Fall 2018/Advanced Quantitative Methods","no","mono","no","18","no","white","no","yes","768","legacy","47","47","C:/Users/Brad/OneDrive/Desktop/Tarleton school stuff/Fall 2018/Advanced Quantitative Methods/bh-subject-2.csv","legacy","Kafkaesque Koffka","3.2.5","0","s","NA","NA","s","NA","s","447","NA","NA","129199","NA","447","2","legacy","1024","2","48000","-16","experiment","SSSSS","2","even","132760","NA","NA","211626","NA","170929","3552","NA","NA","212694","3559","NA","212796","213244","212691","212796","Flanker task","45","23289","48","yes","1024"
"93.8775510204","93.8775510204","484.510204082","484.510204082","black","legacy","legacy","legacy","0","Incongruent","uniform","1","undefined","1","s","0","0","0","48","0","48","0","48","0","48","0","0","48","48","48","48","09/05/18 16:09:00","1500","The main experiment item","yes","Flankertask.osexp","C:/Users/Brad/OneDrive/Desktop/Tarleton school stuff/Fall 2018/Advanced Quantitative Methods","no","mono","no","18","no","white","no","yes","768","legacy","48","48","C:/Users/Brad/OneDrive/Desktop/Tarleton school stuff/Fall 2018/Advanced Quantitative Methods/bh-subject-2.csv","legacy","Kafkaesque Koffka","3.2.5","0","s","NA","NA","s","NA","s","452","NA","NA","129199","NA","452","2","legacy","1024","2","48000","-16","experiment","HHSHH","2","even","132760","NA","NA","213248","NA","170929","3552","NA","NA","214314","3559","NA","214416","214868","214311","214416","Flanker task","46","23741","49","yes","1024"
"94","94","484.26","484.26","black","legacy","legacy","legacy","0","Congruent","uniform","1","undefined","1","h","0","0","0","49","0","49","0","49","0","49","0","0","49","49","49","49","09/05/18 16:09:00","1500","The main experiment item","yes","Flankertask.osexp","C:/Users/Brad/OneDrive/Desktop/Tarleton school stuff/Fall 2018/Advanced Quantitative Methods","no","mono","no","18","no","white","no","yes","768","legacy","49","49","C:/Users/Brad/OneDrive/Desktop/Tarleton school stuff/Fall 2018/Advanced Quantitative Methods/bh-subject-2.csv","legacy","Kafkaesque Koffka","3.2.5","0","h","NA","NA","s","NA","h","472","NA","NA","129199","NA","472","2","legacy","1024","2","48000","-16","experiment","HHHHH","2","even","132760","NA","NA","214880","NA","170929","3552","NA","NA","215948","3559","NA","216050","216523","215945","216050","Flanker task","47","24213","50","yes","1024"
"94.1176470588","94.1176470588","485.235294118","485.235294118","black","legacy","legacy","legacy","0","Incongruent","uniform","1","undefined","1","h","0","0","0","50","0","50","0","50","0","50","0","0","50","50","50","50","09/05/18 16:09:00","1500","The main experiment item","yes","Flankertask.osexp","C:/Users/Brad/OneDrive/Desktop/Tarleton school stuff/Fall 2018/Advanced Quantitative Methods","no","mono","no","18","no","white","no","yes","768","legacy","50","50","C:/Users/Brad/OneDrive/Desktop/Tarleton school stuff/Fall 2018/Advanced Quantitative Methods/bh-subject-2.csv","legacy","Kafkaesque Koffka","3.2.5","0","h","NA","NA","s","NA","h","534","NA","NA","129199","NA","534","2","legacy","1024","2","48000","-16","experiment","SSHSS","2","even","132760","NA","NA","216534","NA","170929","3552","NA","NA","217615","3559","NA","217717","218251","217612","217716","Flanker task","48","24747","51","yes","1024"
"94.2307692308","94.2307692308","485.461538462","485.461538462","black","legacy","legacy","legacy","0","Congruent","uniform","1","undefined","1","h","0","0","0","51","0","51","0","51","0","51","0","0","51","51","51","51","09/05/18 16:09:00","1500","The main experiment item","yes","Flankertask.osexp","C:/Users/Brad/OneDrive/Desktop/Tarleton school stuff/Fall 2018/Advanced Quantitative Methods","no","mono","no","18","no","white","no","yes","768","legacy","51","51","C:/Users/Brad/OneDrive/Desktop/Tarleton school stuff/Fall 2018/Advanced Quantitative Methods/bh-subject-2.csv","legacy","Kafkaesque Koffka","3.2.5","0","h","NA","NA","s","NA","h","497","NA","NA","129199","NA","497","2","legacy","1024","2","48000","-16","experiment","HHHHH","2","even","132760","NA","NA","218263","NA","170929","3552","NA","NA","219328","3559","NA","219429","219927","219325","219429","Flanker task","49","25244","52","yes","1024"
"94.3396226415","94.3396226415","485.301886792","485.301886792","black","legacy","legacy","legacy","0","Congruent","uniform","1","undefined","1","s","0","0","0","52","0","52","0","52","0","52","0","0","52","52","52","52","09/05/18 16:09:00","1500","The main experiment item","yes","Flankertask.osexp","C:/Users/Brad/OneDrive/Desktop/Tarleton school stuff/Fall 2018/Advanced Quantitative Methods","no","mono","no","18","no","white","no","yes","768","legacy","52","52","C:/Users/Brad/OneDrive/Desktop/Tarleton school stuff/Fall 2018/Advanced Quantitative Methods/bh-subject-2.csv","legacy","Kafkaesque Koffka","3.2.5","0","s","NA","NA","s","NA","s","477","NA","NA","129199","NA","477","2","legacy","1024","2","48000","-16","experiment","SSSSS","2","even","132760","NA","NA","219938","NA","170929","3552","NA","NA","221003","3559","NA","221104","221582","221000","221104","Flanker task","50","25721","53","yes","1024"
"94.4444444444","94.4444444444","486.62962963","486.62962963","black","legacy","legacy","legacy","0","Incongruent","uniform","1","undefined","1","s","0","0","0","53","0","53","0","53","0","53","0","0","53","53","53","53","09/05/18 16:09:00","1500","The main experiment item","yes","Flankertask.osexp","C:/Users/Brad/OneDrive/Desktop/Tarleton school stuff/Fall 2018/Advanced Quantitative Methods","no","mono","no","18","no","white","no","yes","768","legacy","53","53","C:/Users/Brad/OneDrive/Desktop/Tarleton school stuff/Fall 2018/Advanced Quantitative Methods/bh-subject-2.csv","legacy","Kafkaesque Koffka","3.2.5","0","s","NA","NA","s","NA","s","557","NA","NA","129199","NA","557","2","legacy","1024","2","48000","-16","experiment","HHSHH","2","even","132760","NA","NA","221593","NA","170929","3552","NA","NA","222664","3559","NA","222765","223323","222661","222765","Flanker task","51","26278","54","yes","1024"
"94.5454545455","94.5454545455","485.654545455","485.654545455","black","legacy","legacy","legacy","0","Congruent","uniform","1","undefined","1","h","0","0","0","54","0","54","0","54","0","54","0","0","54","54","54","54","09/05/18 16:09:00","1500","The main experiment item","yes","Flankertask.osexp","C:/Users/Brad/OneDrive/Desktop/Tarleton school stuff/Fall 2018/Advanced Quantitative Methods","no","mono","no","18","no","white","no","yes","768","legacy","54","54","C:/Users/Brad/OneDrive/Desktop/Tarleton school stuff/Fall 2018/Advanced Quantitative Methods/bh-subject-2.csv","legacy","Kafkaesque Koffka","3.2.5","0","h","NA","NA","s","NA","h","433","NA","NA","129199","NA","433","2","legacy","1024","2","48000","-16","experiment","HHHHH","2","even","132760","NA","NA","223334","NA","170929","3552","NA","NA","224398","3559","NA","224500","224934","224396","224500","Flanker task","52","26711","55","yes","1024"
"94.6428571429","94.6428571429","486.392857143","486.392857143","black","legacy","legacy","legacy","0","Incongruent","uniform","1","undefined","1","h","0","0","0","55","0","55","0","55","0","55","0","0","55","55","55","55","09/05/18 16:09:00","1500","The main experiment item","yes","Flankertask.osexp","C:/Users/Brad/OneDrive/Desktop/Tarleton school stuff/Fall 2018/Advanced Quantitative Methods","no","mono","no","18","no","white","no","yes","768","legacy","55","55","C:/Users/Brad/OneDrive/Desktop/Tarleton school stuff/Fall 2018/Advanced Quantitative Methods/bh-subject-2.csv","legacy","Kafkaesque Koffka","3.2.5","0","h","NA","NA","s","NA","h","527","NA","NA","129199","NA","527","2","legacy","1024","2","48000","-16","experiment","SSHSS","2","even","132760","NA","NA","224945","NA","170929","3552","NA","NA","226010","3559","NA","226113","226641","226008","226113","Flanker task","53","27238","56","yes","1024"
"94.7368421053","94.7368421053","485.789473684","485.789473684","black","legacy","legacy","legacy","0","Congruent","uniform","1","undefined","1","s","0","0","0","56","0","56","0","56","0","56","0","0","56","56","56","56","09/05/18 16:09:00","1500","The main experiment item","yes","Flankertask.osexp","C:/Users/Brad/OneDrive/Desktop/Tarleton school stuff/Fall 2018/Advanced Quantitative Methods","no","mono","no","18","no","white","no","yes","768","legacy","56","56","C:/Users/Brad/OneDrive/Desktop/Tarleton school stuff/Fall 2018/Advanced Quantitative Methods/bh-subject-2.csv","legacy","Kafkaesque Koffka","3.2.5","0","s","NA","NA","s","NA","s","452","NA","NA","129199","NA","452","2","legacy","1024","2","48000","-16","experiment","SSSSS","2","even","132760","NA","NA","226653","NA","170929","3552","NA","NA","227720","3559","NA","227822","228275","227717","227821","Flanker task","54","27690","57","yes","1024"
"94.8275862069","94.8275862069","485.724137931","485.724137931","black","legacy","legacy","legacy","0","Congruent","uniform","1","undefined","1","s","0","0","0","57","0","57","0","57","0","57","0","0","57","57","57","57","09/05/18 16:09:00","1500","The main experiment item","yes","Flankertask.osexp","C:/Users/Brad/OneDrive/Desktop/Tarleton school stuff/Fall 2018/Advanced Quantitative Methods","no","mono","no","18","no","white","no","yes","768","legacy","57","57","C:/Users/Brad/OneDrive/Desktop/Tarleton school stuff/Fall 2018/Advanced Quantitative Methods/bh-subject-2.csv","legacy","Kafkaesque Koffka","3.2.5","0","s","NA","NA","s","NA","s","482","NA","NA","129199","NA","482","2","legacy","1024","2","48000","-16","experiment","SSSSS","2","even","132760","NA","NA","228286","NA","170929","3552","NA","NA","229351","3559","NA","229453","229936","229348","229453","Flanker task","55","28172","58","yes","1024"
"94.9152542373","94.9152542373","486.694915254","486.694915254","black","legacy","legacy","legacy","0","Incongruent","uniform","1","undefined","1","s","0","0","0","58","0","58","0","58","0","58","0","0","58","58","58","58","09/05/18 16:09:00","1500","The main experiment item","yes","Flankertask.osexp","C:/Users/Brad/OneDrive/Desktop/Tarleton school stuff/Fall 2018/Advanced Quantitative Methods","no","mono","no","18","no","white","no","yes","768","legacy","58","58","C:/Users/Brad/OneDrive/Desktop/Tarleton school stuff/Fall 2018/Advanced Quantitative Methods/bh-subject-2.csv","legacy","Kafkaesque Koffka","3.2.5","0","s","NA","NA","s","NA","s","543","NA","NA","129199","NA","543","2","legacy","1024","2","48000","-16","experiment","HHSHH","2","even","132760","NA","NA","229947","NA","170929","3552","NA","NA","231012","3559","NA","231113","231657","231009","231113","Flanker task","56","28715","59","yes","1024"
"95","95","485.383333333","485.383333333","black","legacy","legacy","legacy","0","Congruent","uniform","1","undefined","1","h","0","0","0","59","0","59","0","59","0","59","0","0","59","59","59","59","09/05/18 16:09:00","1500","The main experiment item","yes","Flankertask.osexp","C:/Users/Brad/OneDrive/Desktop/Tarleton school stuff/Fall 2018/Advanced Quantitative Methods","no","mono","no","18","no","white","no","yes","768","legacy","59","59","C:/Users/Brad/OneDrive/Desktop/Tarleton school stuff/Fall 2018/Advanced Quantitative Methods/bh-subject-2.csv","legacy","Kafkaesque Koffka","3.2.5","0","h","NA","NA","s","NA","h","408","NA","NA","129199","NA","408","2","legacy","1024","2","48000","-16","experiment","HHHHH","2","even","132760","NA","NA","231667","NA","170929","3552","NA","NA","232736","3559","NA","232838","233246","232734","232837","Flanker task","57","29123","60","yes","1024"
"95.0819672131","95.0819672131","484.754098361","484.754098361","black","legacy","legacy","legacy","0","Congruent","uniform","1","undefined","1","h","0","0","0","60","0","60","0","60","0","60","0","0","60","60","60","60","09/05/18 16:09:00","1500","The main experiment item","yes","Flankertask.osexp","C:/Users/Brad/OneDrive/Desktop/Tarleton school stuff/Fall 2018/Advanced Quantitative Methods","no","mono","no","18","no","white","no","yes","768","legacy","60","60","C:/Users/Brad/OneDrive/Desktop/Tarleton school stuff/Fall 2018/Advanced Quantitative Methods/bh-subject-2.csv","legacy","Kafkaesque Koffka","3.2.5","0","h","NA","NA","s","NA","h","447","NA","NA","129199","NA","447","2","legacy","1024","2","48000","-16","experiment","HHHHH","2","even","132760","NA","NA","233258","NA","170929","3552","NA","NA","234325","3559","NA","234427","234875","234322","234426","Flanker task","58","29570","61","yes","1024"
"95.1612903226","95.1612903226","483.822580645","483.822580645","black","legacy","legacy","legacy","0","Incongruent","uniform","1","undefined","1","h","0","0","0","61","0","61","0","61","0","61","0","0","61","61","61","61","09/05/18 16:09:00","1500","The main experiment item","yes","Flankertask.osexp","C:/Users/Brad/OneDrive/Desktop/Tarleton school stuff/Fall 2018/Advanced Quantitative Methods","no","mono","no","18","no","white","no","yes","768","legacy","61","61","C:/Users/Brad/OneDrive/Desktop/Tarleton school stuff/Fall 2018/Advanced Quantitative Methods/bh-subject-2.csv","legacy","Kafkaesque Koffka","3.2.5","0","h","NA","NA","s","NA","h","427","NA","NA","129199","NA","427","2","legacy","1024","2","48000","-16","experiment","SSHSS","2","even","132760","NA","NA","234886","NA","170929","3552","NA","NA","235952","3559","NA","236054","236482","235949","236054","Flanker task","59","29997","62","yes","1024"
"95.2380952381","95.2380952381","482.555555556","482.555555556","black","legacy","legacy","legacy","0","Congruent","uniform","1","undefined","1","s","0","0","0","62","0","62","0","62","0","62","0","0","62","62","62","62","09/05/18 16:09:00","1500","The main experiment item","yes","Flankertask.osexp","C:/Users/Brad/OneDrive/Desktop/Tarleton school stuff/Fall 2018/Advanced Quantitative Methods","no","mono","no","18","no","white","no","yes","768","legacy","62","62","C:/Users/Brad/OneDrive/Desktop/Tarleton school stuff/Fall 2018/Advanced Quantitative Methods/bh-subject-2.csv","legacy","Kafkaesque Koffka","3.2.5","0","s","NA","NA","s","NA","s","404","NA","NA","129199","NA","404","2","legacy","1024","2","48000","-16","experiment","SSSSS","2","even","132760","NA","NA","236492","NA","170929","3552","NA","NA","237560","3559","NA","237662","238067","237557","237662","Flanker task","60","30401","63","yes","1024"
"95.3125","95.3125","482.859375","482.859375","black","legacy","legacy","legacy","0","Incongruent","uniform","1","undefined","1","s","0","0","0","63","0","63","0","63","0","63","0","0","63","63","63","63","09/05/18 16:09:00","1500","The main experiment item","yes","Flankertask.osexp","C:/Users/Brad/OneDrive/Desktop/Tarleton school stuff/Fall 2018/Advanced Quantitative Methods","no","mono","no","18","no","white","no","yes","768","legacy","63","63","C:/Users/Brad/OneDrive/Desktop/Tarleton school stuff/Fall 2018/Advanced Quantitative Methods/bh-subject-2.csv","legacy","Kafkaesque Koffka","3.2.5","0","s","NA","NA","s","NA","s","502","NA","NA","129199","NA","502","2","legacy","1024","2","48000","-16","experiment","HHSHH","2","even","132760","NA","NA","238071","NA","170929","3552","NA","NA","239138","3559","NA","239239","239742","239135","239239","Flanker task","61","30903","64","yes","1024"
"95.3846153846","95.3846153846","481.969230769","481.969230769","black","legacy","legacy","legacy","0","Congruent","uniform","1","undefined","1","h","0","0","0","64","0","64","0","64","0","64","0","0","64","64","64","64","09/05/18 16:09:00","1500","The main experiment item","yes","Flankertask.osexp","C:/Users/Brad/OneDrive/Desktop/Tarleton school stuff/Fall 2018/Advanced Quantitative Methods","no","mono","no","18","no","white","no","yes","768","legacy","64","64","C:/Users/Brad/OneDrive/Desktop/Tarleton school stuff/Fall 2018/Advanced Quantitative Methods/bh-subject-2.csv","legacy","Kafkaesque Koffka","3.2.5","0","h","NA","NA","s","NA","h","425","NA","NA","129199","NA","425","2","legacy","1024","2","48000","-16","experiment","HHHHH","2","even","132760","NA","NA","239753","NA","170929","3552","NA","NA","240819","3559","NA","240920","241346","240816","240920","Flanker task","62","31328","65","yes","1024"
"95.4545454545","95.4545454545","481.257575758","481.257575758","black","legacy","legacy","legacy","0","Congruent","uniform","1","undefined","1","h","0","0","0","65","0","65","0","65","0","65","0","0","65","65","65","65","09/05/18 16:09:00","1500","The main experiment item","yes","Flankertask.osexp","C:/Users/Brad/OneDrive/Desktop/Tarleton school stuff/Fall 2018/Advanced Quantitative Methods","no","mono","no","18","no","white","no","yes","768","legacy","65","65","C:/Users/Brad/OneDrive/Desktop/Tarleton school stuff/Fall 2018/Advanced Quantitative Methods/bh-subject-2.csv","legacy","Kafkaesque Koffka","3.2.5","0","h","NA","NA","s","NA","h","435","NA","NA","129199","NA","435","2","legacy","1024","2","48000","-16","experiment","HHHHH","2","even","132760","NA","NA","241358","NA","170929","3552","NA","NA","242424","3559","NA","242526","242962","242421","242525","Flanker task","63","31763","66","yes","1024"
"95.5223880597","95.5223880597","481.626865672","481.626865672","black","legacy","legacy","legacy","0","Incongruent","uniform","1","undefined","1","h","0","0","0","66","0","66","0","66","0","66","0","0","66","66","66","66","09/05/18 16:09:00","1500","The main experiment item","yes","Flankertask.osexp","C:/Users/Brad/OneDrive/Desktop/Tarleton school stuff/Fall 2018/Advanced Quantitative Methods","no","mono","no","18","no","white","no","yes","768","legacy","66","66","C:/Users/Brad/OneDrive/Desktop/Tarleton school stuff/Fall 2018/Advanced Quantitative Methods/bh-subject-2.csv","legacy","Kafkaesque Koffka","3.2.5","0","h","NA","NA","s","NA","h","506","NA","NA","129199","NA","506","2","legacy","1024","2","48000","-16","experiment","SSHSS","2","even","132760","NA","NA","242973","NA","170929","3552","NA","NA","244038","3559","NA","244139","244646","244035","244139","Flanker task","64","32269","67","yes","1024"
"94.1176470588","94.1176470588","479.852941176","479.852941176","black","legacy","legacy","legacy","0","Incongruent","uniform","0","undefined","0","h","0","0","0","67","0","67","0","67","0","67","0","0","67","67","67","67","09/05/18 16:09:00","1500","The main experiment item","yes","Flankertask.osexp","C:/Users/Brad/OneDrive/Desktop/Tarleton school stuff/Fall 2018/Advanced Quantitative Methods","no","mono","no","18","no","white","no","yes","768","legacy","67","67","C:/Users/Brad/OneDrive/Desktop/Tarleton school stuff/Fall 2018/Advanced Quantitative Methods/bh-subject-2.csv","legacy","Kafkaesque Koffka","3.2.5","0","s","NA","NA","s","NA","s","361","NA","NA","129199","NA","361","2","legacy","1024","2","48000","-16","experiment","SSHSS","2","even","132760","NA","NA","244656","NA","170929","3552","NA","NA","245721","3559","NA","245823","246185","245718","245822","Flanker task","64","32630","68","yes","1024"
"94.2028985507","94.2028985507","480.797101449","480.797101449","black","legacy","legacy","legacy","0","Incongruent","uniform","1","undefined","1","s","0","0","0","68","0","68","0","68","0","68","0","0","68","68","68","68","09/05/18 16:09:00","1500","The main experiment item","yes","Flankertask.osexp","C:/Users/Brad/OneDrive/Desktop/Tarleton school stuff/Fall 2018/Advanced Quantitative Methods","no","mono","no","18","no","white","no","yes","768","legacy","68","68","C:/Users/Brad/OneDrive/Desktop/Tarleton school stuff/Fall 2018/Advanced Quantitative Methods/bh-subject-2.csv","legacy","Kafkaesque Koffka","3.2.5","0","s","NA","NA","s","NA","s","545","NA","NA","129199","NA","545","2","legacy","1024","2","48000","-16","experiment","HHSHH","2","even","132760","NA","NA","246698","NA","246196","3552","NA","NA","247763","3559","NA","247864","248410","247760","247864","Flanker task","65","33175","69","yes","1024"
"94.2857142857","94.2857142857","481.757142857","481.757142857","black","legacy","legacy","legacy","0","Congruent","uniform","1","undefined","1","s","0","0","0","69","0","69","0","69","0","69","0","0","69","69","69","69","09/05/18 16:09:00","1500","The main experiment item","yes","Flankertask.osexp","C:/Users/Brad/OneDrive/Desktop/Tarleton school stuff/Fall 2018/Advanced Quantitative Methods","no","mono","no","18","no","white","no","yes","768","legacy","69","69","C:/Users/Brad/OneDrive/Desktop/Tarleton school stuff/Fall 2018/Advanced Quantitative Methods/bh-subject-2.csv","legacy","Kafkaesque Koffka","3.2.5","0","s","NA","NA","s","NA","s","548","NA","NA","129199","NA","548","2","legacy","1024","2","48000","-16","experiment","SSSSS","2","even","132760","NA","NA","248421","NA","246196","3552","NA","NA","249486","3559","NA","249588","250136","249484","249587","Flanker task","66","33723","70","yes","1024"
"94.3661971831","94.3661971831","482.746478873","482.746478873","black","legacy","legacy","legacy","0","Congruent","uniform","1","undefined","1","h","0","0","0","70","0","70","0","70","0","70","0","0","70","70","70","70","09/05/18 16:09:00","1500","The main experiment item","yes","Flankertask.osexp","C:/Users/Brad/OneDrive/Desktop/Tarleton school stuff/Fall 2018/Advanced Quantitative Methods","no","mono","no","18","no","white","no","yes","768","legacy","70","70","C:/Users/Brad/OneDrive/Desktop/Tarleton school stuff/Fall 2018/Advanced Quantitative Methods/bh-subject-2.csv","legacy","Kafkaesque Koffka","3.2.5","0","h","NA","NA","s","NA","h","552","NA","NA","129199","NA","552","2","legacy","1024","2","48000","-16","experiment","HHHHH","2","even","132760","NA","NA","250147","NA","246196","3552","NA","NA","251213","3559","NA","251315","251868","251210","251315","Flanker task","67","34275","71","yes","1024"
"94.4444444444","94.4444444444","482.638888889","482.638888889","black","legacy","legacy","legacy","0","Congruent","uniform","1","undefined","1","h","0","0","0","71","0","71","0","71","0","71","0","0","71","71","71","71","09/05/18 16:09:00","1500","The main experiment item","yes","Flankertask.osexp","C:/Users/Brad/OneDrive/Desktop/Tarleton school stuff/Fall 2018/Advanced Quantitative Methods","no","mono","no","18","no","white","no","yes","768","legacy","71","71","C:/Users/Brad/OneDrive/Desktop/Tarleton school stuff/Fall 2018/Advanced Quantitative Methods/bh-subject-2.csv","legacy","Kafkaesque Koffka","3.2.5","0","h","NA","NA","s","NA","h","475","NA","NA","129199","NA","475","2","legacy","1024","2","48000","-16","experiment","HHHHH","2","even","132760","NA","NA","251880","NA","246196","3552","NA","NA","252946","3559","NA","253048","253524","252943","253048","Flanker task","68","34750","72","yes","1024"
"94.5205479452","94.5205479452","482.342465753","482.342465753","black","legacy","legacy","legacy","0","Incongruent","uniform","1","undefined","1","h","0","0","0","72","0","72","0","72","0","72","0","0","72","72","72","72","09/05/18 16:09:00","1500","The main experiment item","yes","Flankertask.osexp","C:/Users/Brad/OneDrive/Desktop/Tarleton school stuff/Fall 2018/Advanced Quantitative Methods","no","mono","no","18","no","white","no","yes","768","legacy","72","72","C:/Users/Brad/OneDrive/Desktop/Tarleton school stuff/Fall 2018/Advanced Quantitative Methods/bh-subject-2.csv","legacy","Kafkaesque Koffka","3.2.5","0","h","NA","NA","s","NA","h","461","NA","NA","129199","NA","461","2","legacy","1024","2","48000","-16","experiment","SSHSS","2","even","132760","NA","NA","253535","NA","246196","3552","NA","NA","254603","3559","NA","254705","255167","254600","254704","Flanker task","69","35211","73","yes","1024"
"94.5945945946","94.5945945946","483.378378378","483.378378378","black","legacy","legacy","legacy","0","Incongruent","uniform","1","undefined","1","s","0","0","0","73","0","73","0","73","0","73","0","0","73","73","73","73","09/05/18 16:09:00","1500","The main experiment item","yes","Flankertask.osexp","C:/Users/Brad/OneDrive/Desktop/Tarleton school stuff/Fall 2018/Advanced Quantitative Methods","no","mono","no","18","no","white","no","yes","768","legacy","73","73","C:/Users/Brad/OneDrive/Desktop/Tarleton school stuff/Fall 2018/Advanced Quantitative Methods/bh-subject-2.csv","legacy","Kafkaesque Koffka","3.2.5","0","s","NA","NA","s","NA","s","559","NA","NA","129199","NA","559","2","legacy","1024","2","48000","-16","experiment","HHSHH","2","even","132760","NA","NA","255188","NA","246196","3552","NA","NA","256253","3559","NA","256355","256915","256250","256355","Flanker task","70","35770","74","yes","1024"
"94.6666666667","94.6666666667","482.866666667","482.866666667","black","legacy","legacy","legacy","0","Incongruent","uniform","1","undefined","1","s","0","0","0","74","0","74","0","74","0","74","0","0","74","74","74","74","09/05/18 16:09:00","1500","The main experiment item","yes","Flankertask.osexp","C:/Users/Brad/OneDrive/Desktop/Tarleton school stuff/Fall 2018/Advanced Quantitative Methods","no","mono","no","18","no","white","no","yes","768","legacy","74","74","C:/Users/Brad/OneDrive/Desktop/Tarleton school stuff/Fall 2018/Advanced Quantitative Methods/bh-subject-2.csv","legacy","Kafkaesque Koffka","3.2.5","0","s","NA","NA","s","NA","s","445","NA","NA","129199","NA","445","2","legacy","1024","2","48000","-16","experiment","HHSHH","2","even","132760","NA","NA","256927","NA","246196","3552","NA","NA","257992","3559","NA","258093","258539","257989","258093","Flanker task","71","36215","75","yes","1024"
"94.7368421053","94.7368421053","481.960526316","481.960526316","black","legacy","legacy","legacy","0","Incongruent","uniform","1","undefined","1","s","0","0","0","75","0","75","0","75","0","75","0","0","75","75","75","75","09/05/18 16:09:00","1500","The main experiment item","yes","Flankertask.osexp","C:/Users/Brad/OneDrive/Desktop/Tarleton school stuff/Fall 2018/Advanced Quantitative Methods","no","mono","no","18","no","white","no","yes","768","legacy","75","75","C:/Users/Brad/OneDrive/Desktop/Tarleton school stuff/Fall 2018/Advanced Quantitative Methods/bh-subject-2.csv","legacy","Kafkaesque Koffka","3.2.5","0","s","NA","NA","s","NA","s","414","NA","NA","129199","NA","414","2","legacy","1024","2","48000","-16","experiment","HHSHH","2","even","132760","NA","NA","258550","NA","246196","3552","NA","NA","259615","3559","NA","259717","260132","259613","259717","Flanker task","72","36629","76","yes","1024"
"94.8051948052","94.8051948052","482.038961039","482.038961039","black","legacy","legacy","legacy","0","Congruent","uniform","1","undefined","1","h","0","0","0","76","0","76","0","76","0","76","0","0","76","76","76","76","09/05/18 16:09:00","1500","The main experiment item","yes","Flankertask.osexp","C:/Users/Brad/OneDrive/Desktop/Tarleton school stuff/Fall 2018/Advanced Quantitative Methods","no","mono","no","18","no","white","no","yes","768","legacy","76","76","C:/Users/Brad/OneDrive/Desktop/Tarleton school stuff/Fall 2018/Advanced Quantitative Methods/bh-subject-2.csv","legacy","Kafkaesque Koffka","3.2.5","0","h","NA","NA","s","NA","h","488","NA","NA","129199","NA","488","2","legacy","1024","2","48000","-16","experiment","HHHHH","2","even","132760","NA","NA","260143","NA","246196","3552","NA","NA","261211","3559","NA","261312","261801","261208","261312","Flanker task","73","37117","77","yes","1024"
"94.8717948718","94.8717948718","481.743589744","481.743589744","black","legacy","legacy","legacy","0","Congruent","uniform","1","undefined","1","s","0","0","0","77","0","77","0","77","0","77","0","0","77","77","77","77","09/05/18 16:09:00","1500","The main experiment item","yes","Flankertask.osexp","C:/Users/Brad/OneDrive/Desktop/Tarleton school stuff/Fall 2018/Advanced Quantitative Methods","no","mono","no","18","no","white","no","yes","768","legacy","77","77","C:/Users/Brad/OneDrive/Desktop/Tarleton school stuff/Fall 2018/Advanced Quantitative Methods/bh-subject-2.csv","legacy","Kafkaesque Koffka","3.2.5","0","s","NA","NA","s","NA","s","459","NA","NA","129199","NA","459","2","legacy","1024","2","48000","-16","experiment","SSSSS","2","even","132760","NA","NA","261812","NA","246196","3552","NA","NA","262877","3559","NA","262978","263438","262874","262978","Flanker task","74","37576","78","yes","1024"
"94.9367088608","94.9367088608","481.075949367","481.075949367","black","legacy","legacy","legacy","0","Congruent","uniform","1","undefined","1","s","0","0","0","78","0","78","0","78","0","78","0","0","78","78","78","78","09/05/18 16:09:00","1500","The main experiment item","yes","Flankertask.osexp","C:/Users/Brad/OneDrive/Desktop/Tarleton school stuff/Fall 2018/Advanced Quantitative Methods","no","mono","no","18","no","white","no","yes","768","legacy","78","78","C:/Users/Brad/OneDrive/Desktop/Tarleton school stuff/Fall 2018/Advanced Quantitative Methods/bh-subject-2.csv","legacy","Kafkaesque Koffka","3.2.5","0","s","NA","NA","s","NA","s","429","NA","NA","129199","NA","429","2","legacy","1024","2","48000","-16","experiment","SSSSS","2","even","132760","NA","NA","263450","NA","246196","3552","NA","NA","264516","3559","NA","264617","265047","264513","264617","Flanker task","75","38005","79","yes","1024"
"95","95","480.5375","480.5375","black","legacy","legacy","legacy","0","Incongruent","uniform","1","undefined","1","s","0","0","0","79","0","79","0","79","0","79","0","0","79","79","79","79","09/05/18 16:09:00","1500","The main experiment item","yes","Flankertask.osexp","C:/Users/Brad/OneDrive/Desktop/Tarleton school stuff/Fall 2018/Advanced Quantitative Methods","no","mono","no","18","no","white","no","yes","768","legacy","79","79","C:/Users/Brad/OneDrive/Desktop/Tarleton school stuff/Fall 2018/Advanced Quantitative Methods/bh-subject-2.csv","legacy","Kafkaesque Koffka","3.2.5","0","s","NA","NA","s","NA","s","438","NA","NA","129199","NA","438","2","legacy","1024","2","48000","-16","experiment","HHSHH","2","even","132760","NA","NA","265052","NA","246196","3552","NA","NA","266117","3559","NA","266219","266658","266114","266219","Flanker task","76","38443","80","yes","1024"
"95.0617283951","95.0617283951","482.827160494","482.827160494","black","legacy","legacy","legacy","0","Incongruent","uniform","1","undefined","1","h","0","0","0","80","0","80","0","80","0","80","0","0","80","80","80","80","09/05/18 16:09:00","600","The main experiment item","yes","Flankertask.osexp","C:/Users/Brad/OneDrive/Desktop/Tarleton school stuff/Fall 2018/Advanced Quantitative Methods","no","mono","no","18","no","white","no","yes","768","legacy","0","79","C:/Users/Brad/OneDrive/Desktop/Tarleton school stuff/Fall 2018/Advanced Quantitative Methods/bh-subject-2.csv","legacy","Kafkaesque Koffka","3.2.5","0","h","NA","NA","s","s","h","666","NA","NA","129199","8567","666","2","legacy","1024","2","48000","-16","experiment","SSHSS","2","even","132760","276250","NA","266669","NA","246196","3552","NA","NA","276314","3559","267682","276416","277083","276313","276416","Flanker task","77","39109","81","yes","1024"
"95.1219512195","95.1219512195","483.634146341","483.634146341","black","legacy","legacy","legacy","0","Incongruent","uniform","1","undefined","1","h","0","0","0","81","0","81","0","81","0","81","0","0","81","81","81","81","09/05/18 16:09:00","600","The main experiment item","yes","Flankertask.osexp","C:/Users/Brad/OneDrive/Desktop/Tarleton school stuff/Fall 2018/Advanced Quantitative Methods","no","mono","no","18","no","white","no","yes","768","legacy","1","79","C:/Users/Brad/OneDrive/Desktop/Tarleton school stuff/Fall 2018/Advanced Quantitative Methods/bh-subject-2.csv","legacy","Kafkaesque Koffka","3.2.5","0","h","NA","NA","s","s","h","549","NA","NA","129199","8567","549","2","legacy","1024","2","48000","-16","experiment","SSHSS","2","even","132760","276250","NA","277596","NA","246196","3552","277094","NA","278663","3559","267682","278764","279314","278660","278764","Flanker task","78","39658","82","yes","1024"
"95.1807228916","95.1807228916","484.325301205","484.325301205","black","legacy","legacy","legacy","0","Incongruent","uniform","1","undefined","1","s","0","0","0","82","0","82","0","82","0","82","0","0","82","82","82","82","09/05/18 16:09:00","600","The main experiment item","yes","Flankertask.osexp","C:/Users/Brad/OneDrive/Desktop/Tarleton school stuff/Fall 2018/Advanced Quantitative Methods","no","mono","no","18","no","white","no","yes","768","legacy","2","79","C:/Users/Brad/OneDrive/Desktop/Tarleton school stuff/Fall 2018/Advanced Quantitative Methods/bh-subject-2.csv","legacy","Kafkaesque Koffka","3.2.5","0","s","NA","NA","s","s","s","541","NA","NA","129199","8567","541","2","legacy","1024","2","48000","-16","experiment","HHSHH","2","even","132760","276250","NA","279319","NA","246196","3552","277094","NA","280390","3559","267682","280492","281034","280387","280492","Flanker task","79","40199","83","yes","1024"
"95.2380952381","95.2380952381","483.964285714","483.964285714","black","legacy","legacy","legacy","0","Incongruent","uniform","1","undefined","1","s","0","0","0","83","0","83","0","83","0","83","0","0","83","83","83","83","09/05/18 16:09:00","600","The main experiment item","yes","Flankertask.osexp","C:/Users/Brad/OneDrive/Desktop/Tarleton school stuff/Fall 2018/Advanced Quantitative Methods","no","mono","no","18","no","white","no","yes","768","legacy","3","79","C:/Users/Brad/OneDrive/Desktop/Tarleton school stuff/Fall 2018/Advanced Quantitative Methods/bh-subject-2.csv","legacy","Kafkaesque Koffka","3.2.5","0","s","NA","NA","s","s","s","454","NA","NA","129199","8567","454","2","legacy","1024","2","48000","-16","experiment","HHSHH","2","even","132760","276250","NA","281045","NA","246196","3552","277094","NA","282109","3559","267682","282211","282666","282106","282211","Flanker task","80","40653","84","yes","1024"
"95.2941176471","95.2941176471","483.211764706","483.211764706","black","legacy","legacy","legacy","0","Incongruent","uniform","1","undefined","1","s","0","0","0","84","0","84","0","84","0","84","0","0","84","84","84","84","09/05/18 16:09:00","600","The main experiment item","yes","Flankertask.osexp","C:/Users/Brad/OneDrive/Desktop/Tarleton school stuff/Fall 2018/Advanced Quantitative Methods","no","mono","no","18","no","white","no","yes","768","legacy","4","79","C:/Users/Brad/OneDrive/Desktop/Tarleton school stuff/Fall 2018/Advanced Quantitative Methods/bh-subject-2.csv","legacy","Kafkaesque Koffka","3.2.5","0","s","NA","NA","s","s","s","420","NA","NA","129199","8567","420","2","legacy","1024","2","48000","-16","experiment","HHSHH","2","even","132760","276250","NA","282678","NA","246196","3552","277094","NA","283743","3559","267682","283845","284266","283741","283845","Flanker task","81","41073","85","yes","1024"
"95.3488372093","95.3488372093","483.534883721","483.534883721","black","legacy","legacy","legacy","0","Incongruent","uniform","1","undefined","1","h","0","0","0","85","0","85","0","85","0","85","0","0","85","85","85","85","09/05/18 16:09:00","600","The main experiment item","yes","Flankertask.osexp","C:/Users/Brad/OneDrive/Desktop/Tarleton school stuff/Fall 2018/Advanced Quantitative Methods","no","mono","no","18","no","white","no","yes","768","legacy","5","79","C:/Users/Brad/OneDrive/Desktop/Tarleton school stuff/Fall 2018/Advanced Quantitative Methods/bh-subject-2.csv","legacy","Kafkaesque Koffka","3.2.5","0","h","NA","NA","s","s","h","511","NA","NA","129199","8567","511","2","legacy","1024","2","48000","-16","experiment","SSHSS","2","even","132760","276250","NA","284277","NA","246196","3552","277094","NA","285346","3559","267682","285448","285960","285343","285448","Flanker task","82","41584","86","yes","1024"
"95.4022988506","95.4022988506","483.402298851","483.402298851","black","legacy","legacy","legacy","0","Congruent","uniform","1","undefined","1","h","0","0","0","86","0","86","0","86","0","86","0","0","86","86","86","86","09/05/18 16:09:00","600","The main experiment item","yes","Flankertask.osexp","C:/Users/Brad/OneDrive/Desktop/Tarleton school stuff/Fall 2018/Advanced Quantitative Methods","no","mono","no","18","no","white","no","yes","768","legacy","6","79","C:/Users/Brad/OneDrive/Desktop/Tarleton school stuff/Fall 2018/Advanced Quantitative Methods/bh-subject-2.csv","legacy","Kafkaesque Koffka","3.2.5","0","h","NA","NA","s","s","h","472","NA","NA","129199","8567","472","2","legacy","1024","2","48000","-16","experiment","HHHHH","2","even","132760","276250","NA","285971","NA","246196","3552","277094","NA","287036","3559","267682","287137","287611","287034","287137","Flanker task","83","42056","87","yes","1024"
"95.4545454545","95.4545454545","482.852272727","482.852272727","black","legacy","legacy","legacy","0","Congruent","uniform","1","undefined","1","h","0","0","0","87","0","87","0","87","0","87","0","0","87","87","87","87","09/05/18 16:09:00","600","The main experiment item","yes","Flankertask.osexp","C:/Users/Brad/OneDrive/Desktop/Tarleton school stuff/Fall 2018/Advanced Quantitative Methods","no","mono","no","18","no","white","no","yes","768","legacy","7","79","C:/Users/Brad/OneDrive/Desktop/Tarleton school stuff/Fall 2018/Advanced Quantitative Methods/bh-subject-2.csv","legacy","Kafkaesque Koffka","3.2.5","0","h","NA","NA","s","s","h","435","NA","NA","129199","8567","435","2","legacy","1024","2","48000","-16","experiment","HHHHH","2","even","132760","276250","NA","287622","NA","246196","3552","277094","NA","288696","3559","267682","288798","289234","288693","288797","Flanker task","84","42491","88","yes","1024"
"95.5056179775","95.5056179775","481.808988764","481.808988764","black","legacy","legacy","legacy","0","Congruent","uniform","1","undefined","1","s","0","0","0","88","0","88","0","88","0","88","0","0","88","88","88","88","09/05/18 16:09:00","600","The main experiment item","yes","Flankertask.osexp","C:/Users/Brad/OneDrive/Desktop/Tarleton school stuff/Fall 2018/Advanced Quantitative Methods","no","mono","no","18","no","white","no","yes","768","legacy","8","79","C:/Users/Brad/OneDrive/Desktop/Tarleton school stuff/Fall 2018/Advanced Quantitative Methods/bh-subject-2.csv","legacy","Kafkaesque Koffka","3.2.5","0","s","NA","NA","s","s","s","390","NA","NA","129199","8567","390","2","legacy","1024","2","48000","-16","experiment","SSSSS","2","even","132760","276250","NA","289245","NA","246196","3552","277094","NA","290317","3559","267682","290418","290809","290315","290418","Flanker task","85","42881","89","yes","1024"
"95.5555555556","95.5555555556","480.933333333","480.933333333","black","legacy","legacy","legacy","0","Congruent","uniform","1","undefined","1","s","0","0","0","89","0","89","0","89","0","89","0","0","89","89","89","89","09/05/18 16:09:00","600","The main experiment item","yes","Flankertask.osexp","C:/Users/Brad/OneDrive/Desktop/Tarleton school stuff/Fall 2018/Advanced Quantitative Methods","no","mono","no","18","no","white","no","yes","768","legacy","9","79","C:/Users/Brad/OneDrive/Desktop/Tarleton school stuff/Fall 2018/Advanced Quantitative Methods/bh-subject-2.csv","legacy","Kafkaesque Koffka","3.2.5","0","s","NA","NA","s","s","s","403","NA","NA","129199","8567","403","2","legacy","1024","2","48000","-16","experiment","SSSSS","2","even","132760","276250","NA","290819","NA","246196","3552","277094","NA","291886","3559","267682","291988","292392","291883","291988","Flanker task","86","43284","90","yes","1024"
"95.6043956044","95.6043956044","480.153846154","480.153846154","black","legacy","legacy","legacy","0","Congruent","uniform","1","undefined","1","h","0","0","0","90","0","90","0","90","0","90","0","0","90","90","90","90","09/05/18 16:09:00","600","The main experiment item","yes","Flankertask.osexp","C:/Users/Brad/OneDrive/Desktop/Tarleton school stuff/Fall 2018/Advanced Quantitative Methods","no","mono","no","18","no","white","no","yes","768","legacy","10","79","C:/Users/Brad/OneDrive/Desktop/Tarleton school stuff/Fall 2018/Advanced Quantitative Methods/bh-subject-2.csv","legacy","Kafkaesque Koffka","3.2.5","0","h","NA","NA","s","s","h","410","NA","NA","129199","8567","410","2","legacy","1024","2","48000","-16","experiment","HHHHH","2","even","132760","276250","NA","292403","NA","246196","3552","277094","NA","293469","3559","267682","293571","293982","293467","293571","Flanker task","87","43694","91","yes","1024"
"95.652173913","95.652173913","479.891304348","479.891304348","black","legacy","legacy","legacy","0","Congruent","uniform","1","undefined","1","h","0","0","0","91","0","91","0","91","0","91","0","0","91","91","91","91","09/05/18 16:09:00","600","The main experiment item","yes","Flankertask.osexp","C:/Users/Brad/OneDrive/Desktop/Tarleton school stuff/Fall 2018/Advanced Quantitative Methods","no","mono","no","18","no","white","no","yes","768","legacy","11","79","C:/Users/Brad/OneDrive/Desktop/Tarleton school stuff/Fall 2018/Advanced Quantitative Methods/bh-subject-2.csv","legacy","Kafkaesque Koffka","3.2.5","0","h","NA","NA","s","s","h","456","NA","NA","129199","8567","456","2","legacy","1024","2","48000","-16","experiment","HHHHH","2","even","132760","276250","NA","293993","NA","246196","3552","277094","NA","295059","3559","267682","295161","295618","295056","295160","Flanker task","88","44150","92","yes","1024"
"95.6989247312","95.6989247312","479.655913978","479.655913978","black","legacy","legacy","legacy","0","Incongruent","uniform","1","undefined","1","h","0","0","0","92","0","92","0","92","0","92","0","0","92","92","92","92","09/05/18 16:09:00","600","The main experiment item","yes","Flankertask.osexp","C:/Users/Brad/OneDrive/Desktop/Tarleton school stuff/Fall 2018/Advanced Quantitative Methods","no","mono","no","18","no","white","no","yes","768","legacy","12","79","C:/Users/Brad/OneDrive/Desktop/Tarleton school stuff/Fall 2018/Advanced Quantitative Methods/bh-subject-2.csv","legacy","Kafkaesque Koffka","3.2.5","0","h","NA","NA","s","s","h","458","NA","NA","129199","8567","458","2","legacy","1024","2","48000","-16","experiment","SSHSS","2","even","132760","276250","NA","295629","NA","246196","3552","277094","NA","296696","3559","267682","296798","297257","296694","296798","Flanker task","89","44608","93","yes","1024"
"95.7446808511","95.7446808511","479.223404255","479.223404255","black","legacy","legacy","legacy","0","Congruent","uniform","1","undefined","1","h","0","0","0","93","0","93","0","93","0","93","0","0","93","93","93","93","09/05/18 16:09:00","600","The main experiment item","yes","Flankertask.osexp","C:/Users/Brad/OneDrive/Desktop/Tarleton school stuff/Fall 2018/Advanced Quantitative Methods","no","mono","no","18","no","white","no","yes","768","legacy","13","79","C:/Users/Brad/OneDrive/Desktop/Tarleton school stuff/Fall 2018/Advanced Quantitative Methods/bh-subject-2.csv","legacy","Kafkaesque Koffka","3.2.5","0","h","NA","NA","s","s","h","439","NA","NA","129199","8567","439","2","legacy","1024","2","48000","-16","experiment","HHHHH","2","even","132760","276250","NA","297268","NA","246196","3552","277094","NA","298334","3559","267682","298435","298875","298332","298435","Flanker task","90","45047","94","yes","1024"
"95.7894736842","95.7894736842","479.315789474","479.315789474","black","legacy","legacy","legacy","0","Congruent","uniform","1","undefined","1","h","0","0","0","94","0","94","0","94","0","94","0","0","94","94","94","94","09/05/18 16:09:00","600","The main experiment item","yes","Flankertask.osexp","C:/Users/Brad/OneDrive/Desktop/Tarleton school stuff/Fall 2018/Advanced Quantitative Methods","no","mono","no","18","no","white","no","yes","768","legacy","14","79","C:/Users/Brad/OneDrive/Desktop/Tarleton school stuff/Fall 2018/Advanced Quantitative Methods/bh-subject-2.csv","legacy","Kafkaesque Koffka","3.2.5","0","h","NA","NA","s","s","h","488","NA","NA","129199","8567","488","2","legacy","1024","2","48000","-16","experiment","HHHHH","2","even","132760","276250","NA","298886","NA","246196","3552","277094","NA","299954","3559","267682","300057","300546","299952","300057","Flanker task","91","45535","95","yes","1024"
"95.8333333333","95.8333333333","478.677083333","478.677083333","black","legacy","legacy","legacy","0","Incongruent","uniform","1","undefined","1","s","0","0","0","95","0","95","0","95","0","95","0","0","95","95","95","95","09/05/18 16:09:00","600","The main experiment item","yes","Flankertask.osexp","C:/Users/Brad/OneDrive/Desktop/Tarleton school stuff/Fall 2018/Advanced Quantitative Methods","no","mono","no","18","no","white","no","yes","768","legacy","15","79","C:/Users/Brad/OneDrive/Desktop/Tarleton school stuff/Fall 2018/Advanced Quantitative Methods/bh-subject-2.csv","legacy","Kafkaesque Koffka","3.2.5","0","s","NA","NA","s","s","s","418","NA","NA","129199","8567","418","2","legacy","1024","2","48000","-16","experiment","HHSHH","2","even","132760","276250","NA","300557","NA","246196","3552","277094","NA","301626","3559","267682","301728","302148","301623","301727","Flanker task","92","45953","96","yes","1024"
"95.8762886598","95.8762886598","479.278350515","479.278350515","black","legacy","legacy","legacy","0","Incongruent","uniform","1","undefined","1","h","0","0","0","96","0","96","0","96","0","96","0","0","96","96","96","96","09/05/18 16:09:00","600","The main experiment item","yes","Flankertask.osexp","C:/Users/Brad/OneDrive/Desktop/Tarleton school stuff/Fall 2018/Advanced Quantitative Methods","no","mono","no","18","no","white","no","yes","768","legacy","16","79","C:/Users/Brad/OneDrive/Desktop/Tarleton school stuff/Fall 2018/Advanced Quantitative Methods/bh-subject-2.csv","legacy","Kafkaesque Koffka","3.2.5","0","h","NA","NA","s","s","h","537","NA","NA","129199","8567","537","2","legacy","1024","2","48000","-16","experiment","SSHSS","2","even","132760","276250","NA","302158","NA","246196","3552","277094","NA","303223","3559","267682","303324","303863","303220","303324","Flanker task","93","46490","97","yes","1024"
"95.9183673469","95.9183673469","479.520408163","479.520408163","black","legacy","legacy","legacy","0","Incongruent","uniform","1","undefined","1","h","0","0","0","97","0","97","0","97","0","97","0","0","97","97","97","97","09/05/18 16:09:00","600","The main experiment item","yes","Flankertask.osexp","C:/Users/Brad/OneDrive/Desktop/Tarleton school stuff/Fall 2018/Advanced Quantitative Methods","no","mono","no","18","no","white","no","yes","768","legacy","17","79","C:/Users/Brad/OneDrive/Desktop/Tarleton school stuff/Fall 2018/Advanced Quantitative Methods/bh-subject-2.csv","legacy","Kafkaesque Koffka","3.2.5","0","h","NA","NA","s","s","h","503","NA","NA","129199","8567","503","2","legacy","1024","2","48000","-16","experiment","SSHSS","2","even","132760","276250","NA","303874","NA","246196","3552","277094","NA","304940","3559","267682","305041","305545","304937","305041","Flanker task","94","46993","98","yes","1024"
"95.9595959596","95.9595959596","479.131313131","479.131313131","black","legacy","legacy","legacy","0","Incongruent","uniform","1","undefined","1","s","0","0","0","98","0","98","0","98","0","98","0","0","98","98","98","98","09/05/18 16:09:00","600","The main experiment item","yes","Flankertask.osexp","C:/Users/Brad/OneDrive/Desktop/Tarleton school stuff/Fall 2018/Advanced Quantitative Methods","no","mono","no","18","no","white","no","yes","768","legacy","18","79","C:/Users/Brad/OneDrive/Desktop/Tarleton school stuff/Fall 2018/Advanced Quantitative Methods/bh-subject-2.csv","legacy","Kafkaesque Koffka","3.2.5","0","s","NA","NA","s","s","s","441","NA","NA","129199","8567","441","2","legacy","1024","2","48000","-16","experiment","HHSHH","2","even","132760","276250","NA","305557","NA","246196","3552","277094","NA","306621","3559","267682","306723","307165","306619","306722","Flanker task","95","47434","99","yes","1024"
"96","96","479.14","479.14","black","legacy","legacy","legacy","0","Congruent","uniform","1","undefined","1","h","0","0","0","99","0","99","0","99","0","99","0","0","99","99","99","99","09/05/18 16:09:00","600","The main experiment item","yes","Flankertask.osexp","C:/Users/Brad/OneDrive/Desktop/Tarleton school stuff/Fall 2018/Advanced Quantitative Methods","no","mono","no","18","no","white","no","yes","768","legacy","19","79","C:/Users/Brad/OneDrive/Desktop/Tarleton school stuff/Fall 2018/Advanced Quantitative Methods/bh-subject-2.csv","legacy","Kafkaesque Koffka","3.2.5","0","h","NA","NA","s","s","h","480","NA","NA","129199","8567","480","2","legacy","1024","2","48000","-16","experiment","HHHHH","2","even","132760","276250","NA","307176","NA","246196","3552","277094","NA","308245","3559","267682","308347","308829","308242","308347","Flanker task","96","47914","100","yes","1024"
"96.0396039604","96.0396039604","479.376237624","479.376237624","black","legacy","legacy","legacy","0","Incongruent","uniform","1","undefined","1","h","0","0","0","100","0","100","0","100","0","100","0","0","100","100","100","100","09/05/18 16:09:00","600","The main experiment item","yes","Flankertask.osexp","C:/Users/Brad/OneDrive/Desktop/Tarleton school stuff/Fall 2018/Advanced Quantitative Methods","no","mono","no","18","no","white","no","yes","768","legacy","20","79","C:/Users/Brad/OneDrive/Desktop/Tarleton school stuff/Fall 2018/Advanced Quantitative Methods/bh-subject-2.csv","legacy","Kafkaesque Koffka","3.2.5","0","h","NA","NA","s","s","h","503","NA","NA","129199","8567","503","2","legacy","1024","2","48000","-16","experiment","SSHSS","2","even","132760","276250","NA","308841","NA","246196","3552","277094","NA","309906","3559","267682","310008","310513","309903","310007","Flanker task","97","48417","101","yes","1024"
"96.0784313725","96.0784313725","478.843137255","478.843137255","black","legacy","legacy","legacy","0","Congruent","uniform","1","undefined","1","h","0","0","0","101","0","101","0","101","0","101","0","0","101","101","101","101","09/05/18 16:09:00","600","The main experiment item","yes","Flankertask.osexp","C:/Users/Brad/OneDrive/Desktop/Tarleton school stuff/Fall 2018/Advanced Quantitative Methods","no","mono","no","18","no","white","no","yes","768","legacy","21","79","C:/Users/Brad/OneDrive/Desktop/Tarleton school stuff/Fall 2018/Advanced Quantitative Methods/bh-subject-2.csv","legacy","Kafkaesque Koffka","3.2.5","0","h","NA","NA","s","s","h","425","NA","NA","129199","8567","425","2","legacy","1024","2","48000","-16","experiment","HHHHH","2","even","132760","276250","NA","310524","NA","246196","3552","277094","NA","311590","3559","267682","311691","312117","311587","311691","Flanker task","98","48842","102","yes","1024"
"96.1165048544","96.1165048544","478.398058252","478.398058252","black","legacy","legacy","legacy","0","Congruent","uniform","1","undefined","1","h","0","0","0","102","0","102","0","102","0","102","0","0","102","102","102","102","09/05/18 16:09:00","600","The main experiment item","yes","Flankertask.osexp","C:/Users/Brad/OneDrive/Desktop/Tarleton school stuff/Fall 2018/Advanced Quantitative Methods","no","mono","no","18","no","white","no","yes","768","legacy","22","79","C:/Users/Brad/OneDrive/Desktop/Tarleton school stuff/Fall 2018/Advanced Quantitative Methods/bh-subject-2.csv","legacy","Kafkaesque Koffka","3.2.5","0","h","NA","NA","s","s","h","433","NA","NA","129199","8567","433","2","legacy","1024","2","48000","-16","experiment","HHHHH","2","even","132760","276250","NA","312128","NA","246196","3552","277094","NA","313194","3559","267682","313296","313731","313191","313296","Flanker task","99","49275","103","yes","1024"
"96.1538461538","96.1538461538","477.894230769","477.894230769","black","legacy","legacy","legacy","0","Congruent","uniform","1","undefined","1","s","0","0","0","103","0","103","0","103","0","103","0","0","103","103","103","103","09/05/18 16:09:00","600","The main experiment item","yes","Flankertask.osexp","C:/Users/Brad/OneDrive/Desktop/Tarleton school stuff/Fall 2018/Advanced Quantitative Methods","no","mono","no","18","no","white","no","yes","768","legacy","23","79","C:/Users/Brad/OneDrive/Desktop/Tarleton school stuff/Fall 2018/Advanced Quantitative Methods/bh-subject-2.csv","legacy","Kafkaesque Koffka","3.2.5","0","s","NA","NA","s","s","s","426","NA","NA","129199","8567","426","2","legacy","1024","2","48000","-16","experiment","SSSSS","2","even","132760","276250","NA","313742","NA","246196","3552","277094","NA","314807","3559","267682","314908","315335","314805","314908","Flanker task","100","49701","104","yes","1024"
"96.1904761905","96.1904761905","477.066666667","477.066666667","black","legacy","legacy","legacy","0","Congruent","uniform","1","undefined","1","s","0","0","0","104","0","104","0","104","0","104","0","0","104","104","104","104","09/05/18 16:09:00","600","The main experiment item","yes","Flankertask.osexp","C:/Users/Brad/OneDrive/Desktop/Tarleton school stuff/Fall 2018/Advanced Quantitative Methods","no","mono","no","18","no","white","no","yes","768","legacy","24","79","C:/Users/Brad/OneDrive/Desktop/Tarleton school stuff/Fall 2018/Advanced Quantitative Methods/bh-subject-2.csv","legacy","Kafkaesque Koffka","3.2.5","0","s","NA","NA","s","s","s","391","NA","NA","129199","8567","391","2","legacy","1024","2","48000","-16","experiment","SSSSS","2","even","132760","276250","NA","315346","NA","246196","3552","277094","NA","316411","3559","267682","316512","316904","316408","316512","Flanker task","101","50092","105","yes","1024"
"96.2264150943","96.2264150943","476.349056604","476.349056604","black","legacy","legacy","legacy","0","Congruent","uniform","1","undefined","1","s","0","0","0","105","0","105","0","105","0","105","0","0","105","105","105","105","09/05/18 16:09:00","600","The main experiment item","yes","Flankertask.osexp","C:/Users/Brad/OneDrive/Desktop/Tarleton school stuff/Fall 2018/Advanced Quantitative Methods","no","mono","no","18","no","white","no","yes","768","legacy","25","79","C:/Users/Brad/OneDrive/Desktop/Tarleton school stuff/Fall 2018/Advanced Quantitative Methods/bh-subject-2.csv","legacy","Kafkaesque Koffka","3.2.5","0","s","NA","NA","s","s","s","401","NA","NA","129199","8567","401","2","legacy","1024","2","48000","-16","experiment","SSSSS","2","even","132760","276250","NA","316916","NA","246196","3552","277094","NA","317981","3559","267682","318083","318485","317979","318082","Flanker task","102","50493","106","yes","1024"
"96.261682243","96.261682243","475.654205607","475.654205607","black","legacy","legacy","legacy","0","Congruent","uniform","1","undefined","1","s","0","0","0","106","0","106","0","106","0","106","0","0","106","106","106","106","09/05/18 16:09:00","600","The main experiment item","yes","Flankertask.osexp","C:/Users/Brad/OneDrive/Desktop/Tarleton school stuff/Fall 2018/Advanced Quantitative Methods","no","mono","no","18","no","white","no","yes","768","legacy","26","79","C:/Users/Brad/OneDrive/Desktop/Tarleton school stuff/Fall 2018/Advanced Quantitative Methods/bh-subject-2.csv","legacy","Kafkaesque Koffka","3.2.5","0","s","NA","NA","s","s","s","402","NA","NA","129199","8567","402","2","legacy","1024","2","48000","-16","experiment","SSSSS","2","even","132760","276250","NA","318496","NA","246196","3552","277094","NA","319562","3559","267682","319663","320066","319559","319663","Flanker task","103","50895","107","yes","1024"
