condition,acc,accuracy,average_response_time,avg_rt,background,canvas_backend,clock_backend,color_backend,compensation,coordinates,correct,correct_instruction1,correct_keyboard_response,correct_response,count_Block1,count_Block2,count_Block3,count_ISI,count_Stimulus,count_errorfeedback,count_experiment,count_faster,count_finish,count_fixation,count_instruction1,count_instruction2,count_instruction3,count_keyboard_response,count_logger,count_sequence,datetime,deadline,description,disable_garbage_collection,experiment_file,experiment_path,font_bold,font_family,font_italic,font_size,font_underline,foreground,form_clicks,fullscreen,height,keyboard_backend,live_row,live_row_Block1,logfile,mouse_backend,opensesame_codename,opensesame_version,repeat_cycle,response,response_finish,response_instruction1,response_instruction2,response_instruction3,response_keyboard_response,response_time,response_time_finish,response_time_instruction1,response_time_instruction2,response_time_instruction3,response_time_keyboard_response,round_decimals,sampler_backend,sound_buf_size,sound_channels,sound_freq,sound_sample_size,start,stimulus,subject_nr,subject_parity,time_Block1,time_Block2,time_Block3,time_ISI,time_Stimulus,time_errorfeedback,time_experiment,time_faster,time_finish,time_fixation,time_instruction1,time_instruction2,time_instruction3,time_keyboard_response,time_logger,time_sequence,title,total_correct,total_response_time,total_responses,uniform_coordinates,width
Congruent,100,100,1070,1070,black,legacy,legacy,legacy,0,uniform,1,undefined,1,s,0,0,0,0,0,0,0,0,0,0,0,0,0,0,0,0,Sun Sep  9 20:22:07 2018,1500,The main experiment item,yes,FlankerTask.osexp,/Users/hannahrae97/Desktop,no,mono,no,18,no,white,no,yes,768,legacy,0,0,/Users/hannahrae97/Desktop/CTsubject-1.csv,legacy,Kafkaesque Koffka,3.2.5,0,s,NA,h,NA,NA,s,1070,NA,80026,NA,NA,1070,2,legacy,1024,2,48000,-16,experiment,SSSSS,1,odd,83958,NA,NA,NA,84189,NA,3911,NA,NA,84075,3921,NA,NA,84189,85260,84065,Flanker Task,1,1070,1,yes,1024
congruent,100,100,788.5,788.5,black,legacy,legacy,legacy,0,uniform,1,undefined,1,h,0,0,0,1,1,1,0,1,0,1,0,0,0,1,1,1,Sun Sep  9 20:22:07 2018,1500,The main experiment item,yes,FlankerTask.osexp,/Users/hannahrae97/Desktop,no,mono,no,18,no,white,no,yes,768,legacy,1,1,/Users/hannahrae97/Desktop/CTsubject-1.csv,legacy,Kafkaesque Koffka,3.2.5,0,h,NA,h,NA,NA,h,507,NA,80026,NA,NA,507,2,legacy,1024,2,48000,-16,experiment,HHHHH,1,odd,83958,NA,NA,85279,86508,NA,3911,NA,NA,86395,3921,NA,NA,86508,87016,86387,Flanker Task,2,1577,2,yes,1024
Congruent,100,100,723,723,black,legacy,legacy,legacy,0,uniform,1,undefined,1,s,0,0,0,2,2,2,0,2,0,2,0,0,0,2,2,2,Sun Sep  9 20:22:07 2018,1500,The main experiment item,yes,FlankerTask.osexp,/Users/hannahrae97/Desktop,no,mono,no,18,no,white,no,yes,768,legacy,2,2,/Users/hannahrae97/Desktop/CTsubject-1.csv,legacy,Kafkaesque Koffka,3.2.5,0,s,NA,h,NA,NA,s,592,NA,80026,NA,NA,592,2,legacy,1024,2,48000,-16,experiment,SSSSS,1,odd,83958,NA,NA,87028,88235,NA,3911,NA,NA,88126,3921,NA,NA,88235,88828,88118,Flanker Task,3,2169,3,yes,1024
congruent,100,100,655,655,black,legacy,legacy,legacy,0,uniform,1,undefined,1,h,0,0,0,3,3,3,0,3,0,3,0,0,0,3,3,3,Sun Sep  9 20:22:07 2018,1500,The main experiment item,yes,FlankerTask.osexp,/Users/hannahrae97/Desktop,no,mono,no,18,no,white,no,yes,768,legacy,3,3,/Users/hannahrae97/Desktop/CTsubject-1.csv,legacy,Kafkaesque Koffka,3.2.5,0,h,NA,h,NA,NA,h,451,NA,80026,NA,NA,451,2,legacy,1024,2,48000,-16,experiment,HHHHH,1,odd,83958,NA,NA,88839,90048,NA,3911,NA,NA,89940,3921,NA,NA,90048,90500,89932,Flanker Task,4,2620,4,yes,1024
incongruent,100,100,677.4,677.4,black,legacy,legacy,legacy,0,uniform,1,undefined,1,s,0,0,0,4,4,4,0,4,0,4,0,0,0,4,4,4,Sun Sep  9 20:22:07 2018,1500,The main experiment item,yes,FlankerTask.osexp,/Users/hannahrae97/Desktop,no,mono,no,18,no,white,no,yes,768,legacy,4,4,/Users/hannahrae97/Desktop/CTsubject-1.csv,legacy,Kafkaesque Koffka,3.2.5,0,s,NA,h,NA,NA,s,767,NA,80026,NA,NA,767,2,legacy,1024,2,48000,-16,experiment,HHSHH,1,odd,83958,NA,NA,90513,91722,NA,3911,NA,NA,91614,3921,NA,NA,91723,92491,91605,Flanker Task,5,3387,5,yes,1024
incongruent,100,100,670.5,670.5,black,legacy,legacy,legacy,0,uniform,1,undefined,1,h,0,0,0,5,5,5,0,5,0,5,0,0,0,5,5,5,Sun Sep  9 20:22:07 2018,1500,The main experiment item,yes,FlankerTask.osexp,/Users/hannahrae97/Desktop,no,mono,no,18,no,white,no,yes,768,legacy,5,5,/Users/hannahrae97/Desktop/CTsubject-1.csv,legacy,Kafkaesque Koffka,3.2.5,0,h,NA,h,NA,NA,h,636,NA,80026,NA,NA,636,2,legacy,1024,2,48000,-16,experiment,SSHSS,1,odd,83958,NA,NA,92503,93708,NA,3911,NA,NA,93600,3921,NA,NA,93708,94345,93591,Flanker Task,6,4023,6,yes,1024
Congruent,100,100,647.8571429,647.8571429,black,legacy,legacy,legacy,0,uniform,1,undefined,1,s,0,0,0,6,6,6,0,6,0,6,0,0,0,6,6,6,Sun Sep  9 20:22:07 2018,1500,The main experiment item,yes,FlankerTask.osexp,/Users/hannahrae97/Desktop,no,mono,no,18,no,white,no,yes,768,legacy,6,6,/Users/hannahrae97/Desktop/CTsubject-1.csv,legacy,Kafkaesque Koffka,3.2.5,0,s,NA,h,NA,NA,s,512,NA,80026,NA,NA,512,2,legacy,1024,2,48000,-16,experiment,SSSSS,1,odd,83958,NA,NA,94358,95564,NA,3911,NA,NA,95455,3921,NA,NA,95564,96077,95446,Flanker Task,7,4535,7,yes,1024
incongruent,100,100,635.125,635.125,black,legacy,legacy,legacy,0,uniform,1,undefined,1,h,0,0,0,7,7,7,0,7,0,7,0,0,0,7,7,7,Sun Sep  9 20:22:07 2018,1500,The main experiment item,yes,FlankerTask.osexp,/Users/hannahrae97/Desktop,no,mono,no,18,no,white,no,yes,768,legacy,7,7,/Users/hannahrae97/Desktop/CTsubject-1.csv,legacy,Kafkaesque Koffka,3.2.5,0,h,NA,h,NA,NA,h,546,NA,80026,NA,NA,546,2,legacy,1024,2,48000,-16,experiment,SSHSS,1,odd,83958,NA,NA,96088,97300,NA,3911,NA,NA,97190,3921,NA,NA,97300,97847,97181,Flanker Task,8,5081,8,yes,1024
congruent,100,100,626.2222222,626.2222222,black,legacy,legacy,legacy,0,uniform,1,undefined,1,h,0,0,0,8,8,8,0,8,0,8,0,0,0,8,8,8,Sun Sep  9 20:22:07 2018,1500,The main experiment item,yes,FlankerTask.osexp,/Users/hannahrae97/Desktop,no,mono,no,18,no,white,no,yes,768,legacy,8,8,/Users/hannahrae97/Desktop/CTsubject-1.csv,legacy,Kafkaesque Koffka,3.2.5,0,h,NA,h,NA,NA,h,555,NA,80026,NA,NA,555,2,legacy,1024,2,48000,-16,experiment,HHHHH,1,odd,83958,NA,NA,97861,99069,NA,3911,NA,NA,98961,3921,NA,NA,99069,99625,98953,Flanker Task,9,5636,9,yes,1024
congruent,100,100,610.8,610.8,black,legacy,legacy,legacy,0,uniform,1,undefined,1,h,0,0,0,9,9,9,0,9,0,9,0,0,0,9,9,9,Sun Sep  9 20:22:07 2018,1500,The main experiment item,yes,FlankerTask.osexp,/Users/hannahrae97/Desktop,no,mono,no,18,no,white,no,yes,768,legacy,9,9,/Users/hannahrae97/Desktop/CTsubject-1.csv,legacy,Kafkaesque Koffka,3.2.5,0,h,NA,h,NA,NA,h,472,NA,80026,NA,NA,472,2,legacy,1024,2,48000,-16,experiment,HHHHH,1,odd,83958,NA,NA,99637,100847,NA,3911,NA,NA,100737,3921,NA,NA,100847,101320,100729,Flanker Task,10,6108,10,yes,1024
incongruent,90.90909091,90.90909091,610.3636364,610.3636364,black,legacy,legacy,legacy,0,uniform,0,undefined,0,h,0,0,0,10,10,10,0,10,0,10,0,0,0,10,10,10,Sun Sep  9 20:22:07 2018,1500,The main experiment item,yes,FlankerTask.osexp,/Users/hannahrae97/Desktop,no,mono,no,18,no,white,no,yes,768,legacy,10,10,/Users/hannahrae97/Desktop/CTsubject-1.csv,legacy,Kafkaesque Koffka,3.2.5,0,s,NA,h,NA,NA,s,606,NA,80026,NA,NA,606,2,legacy,1024,2,48000,-16,experiment,SSHSS,1,odd,83958,NA,NA,101334,102545,NA,3911,NA,NA,102432,3921,NA,NA,102545,103152,102424,Flanker Task,10,6714,11,yes,1024
incongruent,91.66666667,91.66666667,617.5,617.5,black,legacy,legacy,legacy,0,uniform,1,undefined,1,s,0,0,0,11,11,11,0,11,0,11,0,0,0,11,11,11,Sun Sep  9 20:22:07 2018,1500,The main experiment item,yes,FlankerTask.osexp,/Users/hannahrae97/Desktop,no,mono,no,18,no,white,no,yes,768,legacy,11,11,/Users/hannahrae97/Desktop/CTsubject-1.csv,legacy,Kafkaesque Koffka,3.2.5,0,s,NA,h,NA,NA,s,696,NA,80026,NA,NA,696,2,legacy,1024,2,48000,-16,experiment,HHSHH,1,odd,83958,NA,NA,103674,104886,103165,3911,NA,NA,104775,3921,NA,NA,104886,105583,104767,Flanker Task,11,7410,12,yes,1024
Congruent,92.30769231,92.30769231,619.7692308,619.7692308,black,legacy,legacy,legacy,0,uniform,1,undefined,1,s,0,0,0,12,12,12,0,12,0,12,0,0,0,12,12,12,Sun Sep  9 20:22:07 2018,1500,The main experiment item,yes,FlankerTask.osexp,/Users/hannahrae97/Desktop,no,mono,no,18,no,white,no,yes,768,legacy,12,12,/Users/hannahrae97/Desktop/CTsubject-1.csv,legacy,Kafkaesque Koffka,3.2.5,0,s,NA,h,NA,NA,s,647,NA,80026,NA,NA,647,2,legacy,1024,2,48000,-16,experiment,SSSSS,1,odd,83958,NA,NA,105596,106806,103165,3911,NA,NA,106697,3921,NA,NA,106806,107454,106688,Flanker Task,12,8057,13,yes,1024
Congruent,92.85714286,92.85714286,605.0714286,605.0714286,black,legacy,legacy,legacy,0,uniform,1,undefined,1,s,0,0,0,13,13,13,0,13,0,13,0,0,0,13,13,13,Sun Sep  9 20:22:07 2018,1500,The main experiment item,yes,FlankerTask.osexp,/Users/hannahrae97/Desktop,no,mono,no,18,no,white,no,yes,768,legacy,13,13,/Users/hannahrae97/Desktop/CTsubject-1.csv,legacy,Kafkaesque Koffka,3.2.5,0,s,NA,h,NA,NA,s,414,NA,80026,NA,NA,414,2,legacy,1024,2,48000,-16,experiment,SSSSS,1,odd,83958,NA,NA,107474,108682,103165,3911,NA,NA,108570,3921,NA,NA,108682,109097,108562,Flanker Task,13,8471,14,yes,1024
incongruent,93.33333333,93.33333333,602.9333333,602.9333333,black,legacy,legacy,legacy,0,uniform,1,undefined,1,h,0,0,0,14,14,14,0,14,0,14,0,0,0,14,14,14,Sun Sep  9 20:22:07 2018,1500,The main experiment item,yes,FlankerTask.osexp,/Users/hannahrae97/Desktop,no,mono,no,18,no,white,no,yes,768,legacy,14,14,/Users/hannahrae97/Desktop/CTsubject-1.csv,legacy,Kafkaesque Koffka,3.2.5,0,h,NA,h,NA,NA,h,573,NA,80026,NA,NA,573,2,legacy,1024,2,48000,-16,experiment,SSHSS,1,odd,83958,NA,NA,109110,110323,103165,3911,NA,NA,110215,3921,NA,NA,110324,110898,110207,Flanker Task,14,9044,15,yes,1024
congruent,93.75,93.75,600.75,600.75,black,legacy,legacy,legacy,0,uniform,1,undefined,1,h,0,0,0,15,15,15,0,15,0,15,0,0,0,15,15,15,Sun Sep  9 20:22:07 2018,1500,The main experiment item,yes,FlankerTask.osexp,/Users/hannahrae97/Desktop,no,mono,no,18,no,white,no,yes,768,legacy,15,15,/Users/hannahrae97/Desktop/CTsubject-1.csv,legacy,Kafkaesque Koffka,3.2.5,0,h,NA,h,NA,NA,h,568,NA,80026,NA,NA,568,2,legacy,1024,2,48000,-16,experiment,HHHHH,1,odd,83958,NA,NA,110911,112117,103165,3911,NA,NA,112008,3921,NA,NA,112117,112686,112000,Flanker Task,15,9612,16,yes,1024
incongruent,94.11764706,94.11764706,603.5294118,603.5294118,black,legacy,legacy,legacy,0,uniform,1,undefined,1,s,0,0,0,16,16,16,0,16,0,16,0,0,0,16,16,16,Sun Sep  9 20:22:07 2018,1500,The main experiment item,yes,FlankerTask.osexp,/Users/hannahrae97/Desktop,no,mono,no,18,no,white,no,yes,768,legacy,16,16,/Users/hannahrae97/Desktop/CTsubject-1.csv,legacy,Kafkaesque Koffka,3.2.5,0,s,NA,h,NA,NA,s,648,NA,80026,NA,NA,648,2,legacy,1024,2,48000,-16,experiment,HHSHH,1,odd,83958,NA,NA,112699,113910,103165,3911,NA,NA,113798,3921,NA,NA,113910,114559,113790,Flanker Task,16,10260,17,yes,1024
incongruent,94.44444444,94.44444444,612.2777778,612.2777778,black,legacy,legacy,legacy,0,uniform,1,undefined,1,s,0,0,0,17,17,17,0,17,0,17,0,0,0,17,17,17,Sun Sep  9 20:22:07 2018,1500,The main experiment item,yes,FlankerTask.osexp,/Users/hannahrae97/Desktop,no,mono,no,18,no,white,no,yes,768,legacy,17,17,/Users/hannahrae97/Desktop/CTsubject-1.csv,legacy,Kafkaesque Koffka,3.2.5,0,s,NA,h,NA,NA,s,761,NA,80026,NA,NA,761,2,legacy,1024,2,48000,-16,experiment,HHSHH,1,odd,83958,NA,NA,114570,115777,103165,3911,NA,NA,115666,3921,NA,NA,115777,116539,115658,Flanker Task,17,11021,18,yes,1024
incongruent,94.73684211,94.73684211,611.3157895,611.3157895,black,legacy,legacy,legacy,0,uniform,1,undefined,1,h,0,0,0,18,18,18,0,18,0,18,0,0,0,18,18,18,Sun Sep  9 20:22:07 2018,1500,The main experiment item,yes,FlankerTask.osexp,/Users/hannahrae97/Desktop,no,mono,no,18,no,white,no,yes,768,legacy,18,18,/Users/hannahrae97/Desktop/CTsubject-1.csv,legacy,Kafkaesque Koffka,3.2.5,0,h,NA,h,NA,NA,h,594,NA,80026,NA,NA,594,2,legacy,1024,2,48000,-16,experiment,SSHSS,1,odd,83958,NA,NA,116551,117755,103165,3911,NA,NA,117647,3921,NA,NA,117755,118350,117638,Flanker Task,18,11615,19,yes,1024
congruent,95,95,608.9,608.9,black,legacy,legacy,legacy,0,uniform,1,undefined,1,h,0,0,0,19,19,19,0,19,0,19,0,0,0,19,19,19,Sun Sep  9 20:22:07 2018,1500,The main experiment item,yes,FlankerTask.osexp,/Users/hannahrae97/Desktop,no,mono,no,18,no,white,no,yes,768,legacy,19,19,/Users/hannahrae97/Desktop/CTsubject-1.csv,legacy,Kafkaesque Koffka,3.2.5,0,h,NA,h,NA,NA,h,563,NA,80026,NA,NA,563,2,legacy,1024,2,48000,-16,experiment,HHHHH,1,odd,83958,NA,NA,118362,119571,103165,3911,NA,NA,119461,3921,NA,NA,119571,120135,119453,Flanker Task,19,12178,20,yes,1024
incongruent,95.23809524,95.23809524,608.1428571,608.1428571,black,legacy,legacy,legacy,0,uniform,1,undefined,1,s,0,0,0,20,20,20,0,20,0,20,0,0,0,20,20,20,Sun Sep  9 20:22:07 2018,1500,The main experiment item,yes,FlankerTask.osexp,/Users/hannahrae97/Desktop,no,mono,no,18,no,white,no,yes,768,legacy,20,20,/Users/hannahrae97/Desktop/CTsubject-1.csv,legacy,Kafkaesque Koffka,3.2.5,0,s,NA,h,NA,NA,s,593,NA,80026,NA,NA,593,2,legacy,1024,2,48000,-16,experiment,HHSHH,1,odd,83958,NA,NA,120147,121353,103165,3911,NA,NA,121246,3921,NA,NA,121354,121948,121238,Flanker Task,20,12771,21,yes,1024
Congruent,95.45454545,95.45454545,609.8181818,609.8181818,black,legacy,legacy,legacy,0,uniform,1,undefined,1,s,0,0,0,21,21,21,0,21,0,21,0,0,0,21,21,21,Sun Sep  9 20:22:07 2018,1500,The main experiment item,yes,FlankerTask.osexp,/Users/hannahrae97/Desktop,no,mono,no,18,no,white,no,yes,768,legacy,21,21,/Users/hannahrae97/Desktop/CTsubject-1.csv,legacy,Kafkaesque Koffka,3.2.5,0,s,NA,h,NA,NA,s,645,NA,80026,NA,NA,645,2,legacy,1024,2,48000,-16,experiment,SSSSS,1,odd,83958,NA,NA,121963,123168,103165,3911,NA,NA,123060,3921,NA,NA,123168,123814,123051,Flanker Task,21,13416,22,yes,1024
congruent,95.65217391,95.65217391,602,602,black,legacy,legacy,legacy,0,uniform,1,undefined,1,h,0,0,0,22,22,22,0,22,0,22,0,0,0,22,22,22,Sun Sep  9 20:22:07 2018,1500,The main experiment item,yes,FlankerTask.osexp,/Users/hannahrae97/Desktop,no,mono,no,18,no,white,no,yes,768,legacy,22,22,/Users/hannahrae97/Desktop/CTsubject-1.csv,legacy,Kafkaesque Koffka,3.2.5,0,h,NA,h,NA,NA,h,430,NA,80026,NA,NA,430,2,legacy,1024,2,48000,-16,experiment,HHHHH,1,odd,83958,NA,NA,123826,125037,103165,3911,NA,NA,124928,3921,NA,NA,125037,125468,124920,Flanker Task,22,13846,23,yes,1024
incongruent,95.83333333,95.83333333,605.5,605.5,black,legacy,legacy,legacy,0,uniform,1,undefined,1,s,0,0,0,23,23,23,0,23,0,23,0,0,0,23,23,23,Sun Sep  9 20:22:07 2018,1500,The main experiment item,yes,FlankerTask.osexp,/Users/hannahrae97/Desktop,no,mono,no,18,no,white,no,yes,768,legacy,23,23,/Users/hannahrae97/Desktop/CTsubject-1.csv,legacy,Kafkaesque Koffka,3.2.5,0,s,NA,h,NA,NA,s,686,NA,80026,NA,NA,686,2,legacy,1024,2,48000,-16,experiment,HHSHH,1,odd,83958,NA,NA,125481,126686,103165,3911,NA,NA,126578,3921,NA,NA,126686,127373,126570,Flanker Task,23,14532,24,yes,1024
congruent,96,96,600.92,600.92,black,legacy,legacy,legacy,0,uniform,1,undefined,1,h,0,0,0,24,24,24,0,24,0,24,0,0,0,24,24,24,Sun Sep  9 20:22:07 2018,1500,The main experiment item,yes,FlankerTask.osexp,/Users/hannahrae97/Desktop,no,mono,no,18,no,white,no,yes,768,legacy,24,24,/Users/hannahrae97/Desktop/CTsubject-1.csv,legacy,Kafkaesque Koffka,3.2.5,0,h,NA,h,NA,NA,h,491,NA,80026,NA,NA,491,2,legacy,1024,2,48000,-16,experiment,HHHHH,1,odd,83958,NA,NA,127385,128591,103165,3911,NA,NA,128482,3921,NA,NA,128591,129083,128474,Flanker Task,24,15023,25,yes,1024
incongruent,96.15384615,96.15384615,612.7307692,612.7307692,black,legacy,legacy,legacy,0,uniform,1,undefined,1,h,0,0,0,25,25,25,0,25,0,25,0,0,0,25,25,25,Sun Sep  9 20:22:07 2018,1500,The main experiment item,yes,FlankerTask.osexp,/Users/hannahrae97/Desktop,no,mono,no,18,no,white,no,yes,768,legacy,25,25,/Users/hannahrae97/Desktop/CTsubject-1.csv,legacy,Kafkaesque Koffka,3.2.5,0,h,NA,h,NA,NA,h,908,NA,80026,NA,NA,908,2,legacy,1024,2,48000,-16,experiment,SSHSS,1,odd,83958,NA,NA,129096,130311,103165,3911,NA,NA,130202,3921,NA,NA,130311,131220,130193,Flanker Task,25,15931,26,yes,1024
incongruent,96.2962963,96.2962963,608.3703704,608.3703704,black,legacy,legacy,legacy,0,uniform,1,undefined,1,h,0,0,0,26,26,26,0,26,0,26,0,0,0,26,26,26,Sun Sep  9 20:22:07 2018,1500,The main experiment item,yes,FlankerTask.osexp,/Users/hannahrae97/Desktop,no,mono,no,18,no,white,no,yes,768,legacy,26,26,/Users/hannahrae97/Desktop/CTsubject-1.csv,legacy,Kafkaesque Koffka,3.2.5,0,h,NA,h,NA,NA,h,495,NA,80026,NA,NA,495,2,legacy,1024,2,48000,-16,experiment,SSHSS,1,odd,83958,NA,NA,131232,132436,103165,3911,NA,NA,132327,3921,NA,NA,132436,132932,132319,Flanker Task,26,16426,27,yes,1024
incongruent,96.42857143,96.42857143,605.8928571,605.8928571,black,legacy,legacy,legacy,0,uniform,1,undefined,1,s,0,0,0,27,27,27,0,27,0,27,0,0,0,27,27,27,Sun Sep  9 20:22:07 2018,1500,The main experiment item,yes,FlankerTask.osexp,/Users/hannahrae97/Desktop,no,mono,no,18,no,white,no,yes,768,legacy,27,27,/Users/hannahrae97/Desktop/CTsubject-1.csv,legacy,Kafkaesque Koffka,3.2.5,0,s,NA,h,NA,NA,s,539,NA,80026,NA,NA,539,2,legacy,1024,2,48000,-16,experiment,HHSHH,1,odd,83958,NA,NA,132944,134153,103165,3911,NA,NA,134045,3921,NA,NA,134154,134695,134035,Flanker Task,27,16965,28,yes,1024
congruent,96.55172414,96.55172414,601.5862069,601.5862069,black,legacy,legacy,legacy,0,uniform,1,undefined,1,h,0,0,0,28,28,28,0,28,0,28,0,0,0,28,28,28,Sun Sep  9 20:22:07 2018,1500,The main experiment item,yes,FlankerTask.osexp,/Users/hannahrae97/Desktop,no,mono,no,18,no,white,no,yes,768,legacy,28,28,/Users/hannahrae97/Desktop/CTsubject-1.csv,legacy,Kafkaesque Koffka,3.2.5,0,h,NA,h,NA,NA,h,481,NA,80026,NA,NA,481,2,legacy,1024,2,48000,-16,experiment,HHHHH,1,odd,83958,NA,NA,134708,135921,103165,3911,NA,NA,135813,3921,NA,NA,135921,136403,135804,Flanker Task,28,17446,29,yes,1024
Congruent,96.66666667,96.66666667,602.5666667,602.5666667,black,legacy,legacy,legacy,0,uniform,1,undefined,1,s,0,0,0,29,29,29,0,29,0,29,0,0,0,29,29,29,Sun Sep  9 20:22:07 2018,1500,The main experiment item,yes,FlankerTask.osexp,/Users/hannahrae97/Desktop,no,mono,no,18,no,white,no,yes,768,legacy,29,29,/Users/hannahrae97/Desktop/CTsubject-1.csv,legacy,Kafkaesque Koffka,3.2.5,0,s,NA,h,NA,NA,s,631,NA,80026,NA,NA,631,2,legacy,1024,2,48000,-16,experiment,SSSSS,1,odd,83958,NA,NA,136418,137626,103165,3911,NA,NA,137516,3921,NA,NA,137626,138258,137508,Flanker Task,29,18077,30,yes,1024
Congruent,96.77419355,96.77419355,605,605,black,legacy,legacy,legacy,0,uniform,1,undefined,1,s,0,0,0,30,30,30,0,30,0,30,0,0,0,30,30,30,Sun Sep  9 20:22:07 2018,1500,The main experiment item,yes,FlankerTask.osexp,/Users/hannahrae97/Desktop,no,mono,no,18,no,white,no,yes,768,legacy,30,30,/Users/hannahrae97/Desktop/CTsubject-1.csv,legacy,Kafkaesque Koffka,3.2.5,0,s,NA,h,NA,NA,s,678,NA,80026,NA,NA,678,2,legacy,1024,2,48000,-16,experiment,SSSSS,1,odd,83958,NA,NA,138270,139482,103165,3911,NA,NA,139374,3921,NA,NA,139482,140161,139364,Flanker Task,30,18755,31,yes,1024
congruent,96.875,96.875,599.78125,599.78125,black,legacy,legacy,legacy,0,uniform,1,undefined,1,h,0,0,0,31,31,31,0,31,0,31,0,0,0,31,31,31,Sun Sep  9 20:22:07 2018,1500,The main experiment item,yes,FlankerTask.osexp,/Users/hannahrae97/Desktop,no,mono,no,18,no,white,no,yes,768,legacy,31,31,/Users/hannahrae97/Desktop/CTsubject-1.csv,legacy,Kafkaesque Koffka,3.2.5,0,h,NA,h,NA,NA,h,438,NA,80026,NA,NA,438,2,legacy,1024,2,48000,-16,experiment,HHHHH,1,odd,83958,NA,NA,140172,141382,103165,3911,NA,NA,141272,3921,NA,NA,141383,141822,141264,Flanker Task,31,19193,32,yes,1024
congruent,96.96969697,96.96969697,594.6666667,594.6666667,black,legacy,legacy,legacy,0,uniform,1,undefined,1,h,0,0,0,32,32,32,0,32,0,32,0,0,0,32,32,32,Sun Sep  9 20:22:07 2018,1500,The main experiment item,yes,FlankerTask.osexp,/Users/hannahrae97/Desktop,no,mono,no,18,no,white,no,yes,768,legacy,32,32,/Users/hannahrae97/Desktop/CTsubject-1.csv,legacy,Kafkaesque Koffka,3.2.5,0,h,NA,h,NA,NA,h,431,NA,80026,NA,NA,431,2,legacy,1024,2,48000,-16,experiment,HHHHH,1,odd,83958,NA,NA,141834,143043,103165,3911,NA,NA,142933,3921,NA,NA,143044,143476,142925,Flanker Task,32,19624,33,yes,1024
Congruent,97.05882353,97.05882353,591.8823529,591.8823529,black,legacy,legacy,legacy,0,uniform,1,undefined,1,s,0,0,0,33,33,33,0,33,0,33,0,0,0,33,33,33,Sun Sep  9 20:22:07 2018,1500,The main experiment item,yes,FlankerTask.osexp,/Users/hannahrae97/Desktop,no,mono,no,18,no,white,no,yes,768,legacy,33,33,/Users/hannahrae97/Desktop/CTsubject-1.csv,legacy,Kafkaesque Koffka,3.2.5,0,s,NA,h,NA,NA,s,500,NA,80026,NA,NA,500,2,legacy,1024,2,48000,-16,experiment,SSSSS,1,odd,83958,NA,NA,143489,144691,103165,3911,NA,NA,144583,3921,NA,NA,144691,145192,144575,Flanker Task,33,20124,34,yes,1024
incongruent,97.14285714,97.14285714,590.5428571,590.5428571,black,legacy,legacy,legacy,0,uniform,1,undefined,1,h,0,0,0,34,34,34,0,34,0,34,0,0,0,34,34,34,Sun Sep  9 20:22:07 2018,1500,The main experiment item,yes,FlankerTask.osexp,/Users/hannahrae97/Desktop,no,mono,no,18,no,white,no,yes,768,legacy,34,34,/Users/hannahrae97/Desktop/CTsubject-1.csv,legacy,Kafkaesque Koffka,3.2.5,0,h,NA,h,NA,NA,h,545,NA,80026,NA,NA,545,2,legacy,1024,2,48000,-16,experiment,SSHSS,1,odd,83958,NA,NA,145206,146413,103165,3911,NA,NA,146305,3921,NA,NA,146413,146959,146297,Flanker Task,34,20669,35,yes,1024
congruent,97.22222222,97.22222222,588.4722222,588.4722222,black,legacy,legacy,legacy,0,uniform,1,undefined,1,h,0,0,0,35,35,35,0,35,0,35,0,0,0,35,35,35,Sun Sep  9 20:22:07 2018,1500,The main experiment item,yes,FlankerTask.osexp,/Users/hannahrae97/Desktop,no,mono,no,18,no,white,no,yes,768,legacy,35,35,/Users/hannahrae97/Desktop/CTsubject-1.csv,legacy,Kafkaesque Koffka,3.2.5,0,h,NA,h,NA,NA,h,516,NA,80026,NA,NA,516,2,legacy,1024,2,48000,-16,experiment,HHHHH,1,odd,83958,NA,NA,146972,148180,103165,3911,NA,NA,148072,3921,NA,NA,148180,148697,148063,Flanker Task,35,21185,36,yes,1024
congruent,97.2972973,97.2972973,583.2972973,583.2972973,black,legacy,legacy,legacy,0,uniform,1,undefined,1,h,0,0,0,36,36,36,0,36,0,36,0,0,0,36,36,36,Sun Sep  9 20:22:07 2018,1500,The main experiment item,yes,FlankerTask.osexp,/Users/hannahrae97/Desktop,no,mono,no,18,no,white,no,yes,768,legacy,36,36,/Users/hannahrae97/Desktop/CTsubject-1.csv,legacy,Kafkaesque Koffka,3.2.5,0,h,NA,h,NA,NA,h,397,NA,80026,NA,NA,397,2,legacy,1024,2,48000,-16,experiment,HHHHH,1,odd,83958,NA,NA,148710,149918,103165,3911,NA,NA,149810,3921,NA,NA,149918,150316,149802,Flanker Task,36,21582,37,yes,1024
incongruent,97.36842105,97.36842105,586.6842105,586.6842105,black,legacy,legacy,legacy,0,uniform,1,undefined,1,h,0,0,0,37,37,37,0,37,0,37,0,0,0,37,37,37,Sun Sep  9 20:22:07 2018,1500,The main experiment item,yes,FlankerTask.osexp,/Users/hannahrae97/Desktop,no,mono,no,18,no,white,no,yes,768,legacy,37,37,/Users/hannahrae97/Desktop/CTsubject-1.csv,legacy,Kafkaesque Koffka,3.2.5,0,h,NA,h,NA,NA,h,712,NA,80026,NA,NA,712,2,legacy,1024,2,48000,-16,experiment,SSHSS,1,odd,83958,NA,NA,150328,151534,103165,3911,NA,NA,151425,3921,NA,NA,151534,152247,151417,Flanker Task,37,22294,38,yes,1024
incongruent,97.43589744,97.43589744,587.7179487,587.7179487,black,legacy,legacy,legacy,0,uniform,1,undefined,1,s,0,0,0,38,38,38,0,38,0,38,0,0,0,38,38,38,Sun Sep  9 20:22:07 2018,1500,The main experiment item,yes,FlankerTask.osexp,/Users/hannahrae97/Desktop,no,mono,no,18,no,white,no,yes,768,legacy,38,38,/Users/hannahrae97/Desktop/CTsubject-1.csv,legacy,Kafkaesque Koffka,3.2.5,0,s,NA,h,NA,NA,s,627,NA,80026,NA,NA,627,2,legacy,1024,2,48000,-16,experiment,HHSHH,1,odd,83958,NA,NA,152259,153478,103165,3911,NA,NA,153370,3921,NA,NA,153478,154106,153358,Flanker Task,38,22921,39,yes,1024
incongruent,97.5,97.5,595.375,595.375,black,legacy,legacy,legacy,0,uniform,1,undefined,1,s,0,0,0,39,39,39,0,39,0,39,0,0,0,39,39,39,Sun Sep  9 20:22:07 2018,1500,The main experiment item,yes,FlankerTask.osexp,/Users/hannahrae97/Desktop,no,mono,no,18,no,white,no,yes,768,legacy,39,39,/Users/hannahrae97/Desktop/CTsubject-1.csv,legacy,Kafkaesque Koffka,3.2.5,0,s,NA,h,NA,NA,s,894,NA,80026,NA,NA,894,2,legacy,1024,2,48000,-16,experiment,HHSHH,1,odd,83958,NA,NA,154120,155327,103165,3911,NA,NA,155217,3921,NA,NA,155327,156222,155209,Flanker Task,39,23815,40,yes,1024
incongruent,97.56097561,97.56097561,593.5365854,593.5365854,black,legacy,legacy,legacy,0,uniform,1,undefined,1,h,0,0,0,40,40,40,0,40,0,40,0,0,0,40,40,40,Sun Sep  9 20:22:07 2018,1500,The main experiment item,yes,FlankerTask.osexp,/Users/hannahrae97/Desktop,no,mono,no,18,no,white,no,yes,768,legacy,40,40,/Users/hannahrae97/Desktop/CTsubject-1.csv,legacy,Kafkaesque Koffka,3.2.5,0,h,NA,h,NA,NA,h,520,NA,80026,NA,NA,520,2,legacy,1024,2,48000,-16,experiment,SSHSS,1,odd,83958,NA,NA,156235,157446,103165,3911,NA,NA,157338,3921,NA,NA,157446,157967,157329,Flanker Task,40,24335,41,yes,1024
incongruent,97.61904762,97.61904762,593.952381,593.952381,black,legacy,legacy,legacy,0,uniform,1,undefined,1,s,0,0,0,41,41,41,0,41,0,41,0,0,0,41,41,41,Sun Sep  9 20:22:07 2018,1500,The main experiment item,yes,FlankerTask.osexp,/Users/hannahrae97/Desktop,no,mono,no,18,no,white,no,yes,768,legacy,41,41,/Users/hannahrae97/Desktop/CTsubject-1.csv,legacy,Kafkaesque Koffka,3.2.5,0,s,NA,h,NA,NA,s,611,NA,80026,NA,NA,611,2,legacy,1024,2,48000,-16,experiment,HHSHH,1,odd,83958,NA,NA,157979,159194,103165,3911,NA,NA,159081,3921,NA,NA,159194,159806,159073,Flanker Task,41,24946,42,yes,1024
Congruent,97.6744186,97.6744186,593.9767442,593.9767442,black,legacy,legacy,legacy,0,uniform,1,undefined,1,s,0,0,0,42,42,42,0,42,0,42,0,0,0,42,42,42,Sun Sep  9 20:22:07 2018,1500,The main experiment item,yes,FlankerTask.osexp,/Users/hannahrae97/Desktop,no,mono,no,18,no,white,no,yes,768,legacy,42,42,/Users/hannahrae97/Desktop/CTsubject-1.csv,legacy,Kafkaesque Koffka,3.2.5,0,s,NA,h,NA,NA,s,595,NA,80026,NA,NA,595,2,legacy,1024,2,48000,-16,experiment,SSSSS,1,odd,83958,NA,NA,159817,161028,103165,3911,NA,NA,160920,3921,NA,NA,161028,161625,160911,Flanker Task,42,25541,43,yes,1024
incongruent,97.72727273,97.72727273,595.5909091,595.5909091,black,legacy,legacy,legacy,0,uniform,1,undefined,1,s,0,0,0,43,43,43,0,43,0,43,0,0,0,43,43,43,Sun Sep  9 20:22:07 2018,1500,The main experiment item,yes,FlankerTask.osexp,/Users/hannahrae97/Desktop,no,mono,no,18,no,white,no,yes,768,legacy,43,43,/Users/hannahrae97/Desktop/CTsubject-1.csv,legacy,Kafkaesque Koffka,3.2.5,0,s,NA,h,NA,NA,s,665,NA,80026,NA,NA,665,2,legacy,1024,2,48000,-16,experiment,HHSHH,1,odd,83958,NA,NA,161636,162841,103165,3911,NA,NA,162733,3921,NA,NA,162841,163507,162725,Flanker Task,43,26206,44,yes,1024
incongruent,97.77777778,97.77777778,594.0666667,594.0666667,black,legacy,legacy,legacy,0,uniform,1,undefined,1,h,0,0,0,44,44,44,0,44,0,44,0,0,0,44,44,44,Sun Sep  9 20:22:07 2018,1500,The main experiment item,yes,FlankerTask.osexp,/Users/hannahrae97/Desktop,no,mono,no,18,no,white,no,yes,768,legacy,44,44,/Users/hannahrae97/Desktop/CTsubject-1.csv,legacy,Kafkaesque Koffka,3.2.5,0,h,NA,h,NA,NA,h,527,NA,80026,NA,NA,527,2,legacy,1024,2,48000,-16,experiment,SSHSS,1,odd,83958,NA,NA,163519,164728,103165,3911,NA,NA,164618,3921,NA,NA,164729,165257,164610,Flanker Task,44,26733,45,yes,1024
incongruent,97.82608696,97.82608696,597.5,597.5,black,legacy,legacy,legacy,0,uniform,1,undefined,1,s,0,0,0,45,45,45,0,45,0,45,0,0,0,45,45,45,Sun Sep  9 20:22:07 2018,1500,The main experiment item,yes,FlankerTask.osexp,/Users/hannahrae97/Desktop,no,mono,no,18,no,white,no,yes,768,legacy,45,45,/Users/hannahrae97/Desktop/CTsubject-1.csv,legacy,Kafkaesque Koffka,3.2.5,0,s,NA,h,NA,NA,s,752,NA,80026,NA,NA,752,2,legacy,1024,2,48000,-16,experiment,HHSHH,1,odd,83958,NA,NA,165269,166479,103165,3911,NA,NA,166370,3921,NA,NA,166479,167232,166362,Flanker Task,45,27485,46,yes,1024
incongruent,97.87234043,97.87234043,599.212766,599.212766,black,legacy,legacy,legacy,0,uniform,1,undefined,1,h,0,0,0,46,46,46,0,46,0,46,0,0,0,46,46,46,Sun Sep  9 20:22:07 2018,1500,The main experiment item,yes,FlankerTask.osexp,/Users/hannahrae97/Desktop,no,mono,no,18,no,white,no,yes,768,legacy,46,46,/Users/hannahrae97/Desktop/CTsubject-1.csv,legacy,Kafkaesque Koffka,3.2.5,0,h,NA,h,NA,NA,h,678,NA,80026,NA,NA,678,2,legacy,1024,2,48000,-16,experiment,SSHSS,1,odd,83958,NA,NA,167244,168451,103165,3911,NA,NA,168343,3921,NA,NA,168451,169130,168334,Flanker Task,46,28163,47,yes,1024
incongruent,97.91666667,97.91666667,598.7916667,598.7916667,black,legacy,legacy,legacy,0,uniform,1,undefined,1,s,0,0,0,47,47,47,0,47,0,47,0,0,0,47,47,47,Sun Sep  9 20:22:07 2018,1500,The main experiment item,yes,FlankerTask.osexp,/Users/hannahrae97/Desktop,no,mono,no,18,no,white,no,yes,768,legacy,47,47,/Users/hannahrae97/Desktop/CTsubject-1.csv,legacy,Kafkaesque Koffka,3.2.5,0,s,NA,h,NA,NA,s,579,NA,80026,NA,NA,579,2,legacy,1024,2,48000,-16,experiment,HHSHH,1,odd,83958,NA,NA,169142,170350,103165,3911,NA,NA,170242,3921,NA,NA,170350,170930,170234,Flanker Task,47,28742,48,yes,1024
Congruent,97.95918367,97.95918367,597.877551,597.877551,black,legacy,legacy,legacy,0,uniform,1,undefined,1,s,0,0,0,48,48,48,0,48,0,48,0,0,0,48,48,48,Sun Sep  9 20:22:07 2018,1500,The main experiment item,yes,FlankerTask.osexp,/Users/hannahrae97/Desktop,no,mono,no,18,no,white,no,yes,768,legacy,48,48,/Users/hannahrae97/Desktop/CTsubject-1.csv,legacy,Kafkaesque Koffka,3.2.5,0,s,NA,h,NA,NA,s,554,NA,80026,NA,NA,554,2,legacy,1024,2,48000,-16,experiment,SSSSS,1,odd,83958,NA,NA,170942,172152,103165,3911,NA,NA,172038,3921,NA,NA,172152,172708,172029,Flanker Task,48,29296,49,yes,1024
incongruent,98,98,598.5,598.5,black,legacy,legacy,legacy,0,uniform,1,undefined,1,h,0,0,0,49,49,49,0,49,0,49,0,0,0,49,49,49,Sun Sep  9 20:22:07 2018,1500,The main experiment item,yes,FlankerTask.osexp,/Users/hannahrae97/Desktop,no,mono,no,18,no,white,no,yes,768,legacy,49,49,/Users/hannahrae97/Desktop/CTsubject-1.csv,legacy,Kafkaesque Koffka,3.2.5,0,h,NA,h,NA,NA,h,629,NA,80026,NA,NA,629,2,legacy,1024,2,48000,-16,experiment,SSHSS,1,odd,83958,NA,NA,172720,173932,103165,3911,NA,NA,173824,3921,NA,NA,173932,174563,173816,Flanker Task,49,29925,50,yes,1024
incongruent,98.03921569,98.03921569,598.8627451,598.8627451,black,legacy,legacy,legacy,0,uniform,1,undefined,1,s,0,0,0,50,50,50,0,50,0,50,0,0,0,50,50,50,Sun Sep  9 20:22:07 2018,1500,The main experiment item,yes,FlankerTask.osexp,/Users/hannahrae97/Desktop,no,mono,no,18,no,white,no,yes,768,legacy,50,50,/Users/hannahrae97/Desktop/CTsubject-1.csv,legacy,Kafkaesque Koffka,3.2.5,0,s,NA,h,NA,NA,s,617,NA,80026,NA,NA,617,2,legacy,1024,2,48000,-16,experiment,HHSHH,1,odd,83958,NA,NA,174574,175782,103165,3911,NA,NA,175674,3921,NA,NA,175782,176401,175666,Flanker Task,50,30542,51,yes,1024
incongruent,98.07692308,98.07692308,598.75,598.75,black,legacy,legacy,legacy,0,uniform,1,undefined,1,h,0,0,0,51,51,51,0,51,0,51,0,0,0,51,51,51,Sun Sep  9 20:22:07 2018,1500,The main experiment item,yes,FlankerTask.osexp,/Users/hannahrae97/Desktop,no,mono,no,18,no,white,no,yes,768,legacy,51,51,/Users/hannahrae97/Desktop/CTsubject-1.csv,legacy,Kafkaesque Koffka,3.2.5,0,h,NA,h,NA,NA,h,593,NA,80026,NA,NA,593,2,legacy,1024,2,48000,-16,experiment,SSHSS,1,odd,83958,NA,NA,176412,177619,103165,3911,NA,NA,177508,3921,NA,NA,177619,178213,177500,Flanker Task,51,31135,52,yes,1024
incongruent,98.11320755,98.11320755,600.8301887,600.8301887,black,legacy,legacy,legacy,0,uniform,1,undefined,1,s,0,0,0,52,52,52,0,52,0,52,0,0,0,52,52,52,Sun Sep  9 20:22:07 2018,1500,The main experiment item,yes,FlankerTask.osexp,/Users/hannahrae97/Desktop,no,mono,no,18,no,white,no,yes,768,legacy,52,52,/Users/hannahrae97/Desktop/CTsubject-1.csv,legacy,Kafkaesque Koffka,3.2.5,0,s,NA,h,NA,NA,s,709,NA,80026,NA,NA,709,2,legacy,1024,2,48000,-16,experiment,HHSHH,1,odd,83958,NA,NA,178228,179439,103165,3911,NA,NA,179332,3921,NA,NA,179440,180150,179323,Flanker Task,52,31844,53,yes,1024
congruent,98.14814815,98.14814815,598.2962963,598.2962963,black,legacy,legacy,legacy,0,uniform,1,undefined,1,h,0,0,0,53,53,53,0,53,0,53,0,0,0,53,53,53,Sun Sep  9 20:22:07 2018,1500,The main experiment item,yes,FlankerTask.osexp,/Users/hannahrae97/Desktop,no,mono,no,18,no,white,no,yes,768,legacy,53,53,/Users/hannahrae97/Desktop/CTsubject-1.csv,legacy,Kafkaesque Koffka,3.2.5,0,h,NA,h,NA,NA,h,464,NA,80026,NA,NA,464,2,legacy,1024,2,48000,-16,experiment,HHHHH,1,odd,83958,NA,NA,180163,181375,103165,3911,NA,NA,181263,3921,NA,NA,181375,181840,181255,Flanker Task,53,32308,54,yes,1024
congruent,98.18181818,98.18181818,599.7454545,599.7454545,black,legacy,legacy,legacy,0,uniform,1,undefined,1,h,0,0,0,54,54,54,0,54,0,54,0,0,0,54,54,54,Sun Sep  9 20:22:07 2018,1500,The main experiment item,yes,FlankerTask.osexp,/Users/hannahrae97/Desktop,no,mono,no,18,no,white,no,yes,768,legacy,54,54,/Users/hannahrae97/Desktop/CTsubject-1.csv,legacy,Kafkaesque Koffka,3.2.5,0,h,NA,h,NA,NA,h,678,NA,80026,NA,NA,678,2,legacy,1024,2,48000,-16,experiment,HHHHH,1,odd,83958,NA,NA,181853,183064,103165,3911,NA,NA,182952,3921,NA,NA,183064,183743,182942,Flanker Task,54,32986,55,yes,1024
Congruent,98.21428571,98.21428571,595.9464286,595.9464286,black,legacy,legacy,legacy,0,uniform,1,undefined,1,s,0,0,0,55,55,55,0,55,0,55,0,0,0,55,55,55,Sun Sep  9 20:22:07 2018,1500,The main experiment item,yes,FlankerTask.osexp,/Users/hannahrae97/Desktop,no,mono,no,18,no,white,no,yes,768,legacy,55,55,/Users/hannahrae97/Desktop/CTsubject-1.csv,legacy,Kafkaesque Koffka,3.2.5,0,s,NA,h,NA,NA,s,387,NA,80026,NA,NA,387,2,legacy,1024,2,48000,-16,experiment,SSSSS,1,odd,83958,NA,NA,183756,184962,103165,3911,NA,NA,184853,3921,NA,NA,184962,185350,184845,Flanker Task,55,33373,56,yes,1024
incongruent,96.49122807,96.49122807,592.4561404,592.4561404,black,legacy,legacy,legacy,0,uniform,0,undefined,0,s,0,0,0,56,56,56,0,56,0,56,0,0,0,56,56,56,Sun Sep  9 20:22:07 2018,1500,The main experiment item,yes,FlankerTask.osexp,/Users/hannahrae97/Desktop,no,mono,no,18,no,white,no,yes,768,legacy,56,56,/Users/hannahrae97/Desktop/CTsubject-1.csv,legacy,Kafkaesque Koffka,3.2.5,0,h,NA,h,NA,NA,h,397,NA,80026,NA,NA,397,2,legacy,1024,2,48000,-16,experiment,HHSHH,1,odd,83958,NA,NA,185363,186574,103165,3911,NA,NA,186460,3921,NA,NA,186574,186973,186452,Flanker Task,55,33770,57,yes,1024
congruent,96.55172414,96.55172414,590.5689655,590.5689655,black,legacy,legacy,legacy,0,uniform,1,undefined,1,h,0,0,0,57,57,57,0,57,0,57,0,0,0,57,57,57,Sun Sep  9 20:22:07 2018,1500,The main experiment item,yes,FlankerTask.osexp,/Users/hannahrae97/Desktop,no,mono,no,18,no,white,no,yes,768,legacy,57,57,/Users/hannahrae97/Desktop/CTsubject-1.csv,legacy,Kafkaesque Koffka,3.2.5,0,h,NA,h,NA,NA,h,483,NA,80026,NA,NA,483,2,legacy,1024,2,48000,-16,experiment,HHHHH,1,odd,83958,NA,NA,187497,188715,186986,3911,NA,NA,188605,3921,NA,NA,188715,189200,188597,Flanker Task,56,34253,58,yes,1024
incongruent,96.61016949,96.61016949,589.1525424,589.1525424,black,legacy,legacy,legacy,0,uniform,1,undefined,1,s,0,0,0,58,58,58,0,58,0,58,0,0,0,58,58,58,Sun Sep  9 20:22:07 2018,1500,The main experiment item,yes,FlankerTask.osexp,/Users/hannahrae97/Desktop,no,mono,no,18,no,white,no,yes,768,legacy,58,58,/Users/hannahrae97/Desktop/CTsubject-1.csv,legacy,Kafkaesque Koffka,3.2.5,0,s,NA,h,NA,NA,s,507,NA,80026,NA,NA,507,2,legacy,1024,2,48000,-16,experiment,HHSHH,1,odd,83958,NA,NA,189211,190416,186986,3911,NA,NA,190308,3921,NA,NA,190416,190924,190300,Flanker Task,57,34760,59,yes,1024
Congruent,96.66666667,96.66666667,589.6833333,589.6833333,black,legacy,legacy,legacy,0,uniform,1,undefined,1,s,0,0,0,59,59,59,0,59,0,59,0,0,0,59,59,59,Sun Sep  9 20:22:07 2018,1500,The main experiment item,yes,FlankerTask.osexp,/Users/hannahrae97/Desktop,no,mono,no,18,no,white,no,yes,768,legacy,59,59,/Users/hannahrae97/Desktop/CTsubject-1.csv,legacy,Kafkaesque Koffka,3.2.5,0,s,NA,h,NA,NA,s,621,NA,80026,NA,NA,621,2,legacy,1024,2,48000,-16,experiment,SSSSS,1,odd,83958,NA,NA,190936,192145,186986,3911,NA,NA,192034,3921,NA,NA,192146,192768,192026,Flanker Task,58,35381,60,yes,1024
incongruent,96.72131148,96.72131148,591.1803279,591.1803279,black,legacy,legacy,legacy,0,uniform,1,undefined,1,s,0,0,0,60,60,60,0,60,0,60,0,0,0,60,60,60,Sun Sep  9 20:22:07 2018,1500,The main experiment item,yes,FlankerTask.osexp,/Users/hannahrae97/Desktop,no,mono,no,18,no,white,no,yes,768,legacy,60,60,/Users/hannahrae97/Desktop/CTsubject-1.csv,legacy,Kafkaesque Koffka,3.2.5,0,s,NA,h,NA,NA,s,681,NA,80026,NA,NA,681,2,legacy,1024,2,48000,-16,experiment,HHSHH,1,odd,83958,NA,NA,192780,193985,186986,3911,NA,NA,193877,3921,NA,NA,193985,194668,193869,Flanker Task,59,36062,61,yes,1024
incongruent,96.77419355,96.77419355,591.1451613,591.1451613,black,legacy,legacy,legacy,0,uniform,1,undefined,1,h,0,0,0,61,61,61,0,61,0,61,0,0,0,61,61,61,Sun Sep  9 20:22:07 2018,1500,The main experiment item,yes,FlankerTask.osexp,/Users/hannahrae97/Desktop,no,mono,no,18,no,white,no,yes,768,legacy,61,61,/Users/hannahrae97/Desktop/CTsubject-1.csv,legacy,Kafkaesque Koffka,3.2.5,0,h,NA,h,NA,NA,h,589,NA,80026,NA,NA,589,2,legacy,1024,2,48000,-16,experiment,SSHSS,1,odd,83958,NA,NA,194681,195888,186986,3911,NA,NA,195779,3921,NA,NA,195888,196479,195769,Flanker Task,60,36651,62,yes,1024
Congruent,96.82539683,96.82539683,589.5555556,589.5555556,black,legacy,legacy,legacy,0,uniform,1,undefined,1,s,0,0,0,62,62,62,0,62,0,62,0,0,0,62,62,62,Sun Sep  9 20:22:07 2018,1500,The main experiment item,yes,FlankerTask.osexp,/Users/hannahrae97/Desktop,no,mono,no,18,no,white,no,yes,768,legacy,62,62,/Users/hannahrae97/Desktop/CTsubject-1.csv,legacy,Kafkaesque Koffka,3.2.5,0,s,NA,h,NA,NA,s,491,NA,80026,NA,NA,491,2,legacy,1024,2,48000,-16,experiment,SSSSS,1,odd,83958,NA,NA,196491,197695,186986,3911,NA,NA,197587,3921,NA,NA,197695,198188,197579,Flanker Task,61,37142,63,yes,1024
incongruent,96.875,96.875,587.765625,587.765625,black,legacy,legacy,legacy,0,uniform,1,undefined,1,h,0,0,0,63,63,63,0,63,0,63,0,0,0,63,63,63,Sun Sep  9 20:22:07 2018,1500,The main experiment item,yes,FlankerTask.osexp,/Users/hannahrae97/Desktop,no,mono,no,18,no,white,no,yes,768,legacy,63,63,/Users/hannahrae97/Desktop/CTsubject-1.csv,legacy,Kafkaesque Koffka,3.2.5,0,h,NA,h,NA,NA,h,475,NA,80026,NA,NA,475,2,legacy,1024,2,48000,-16,experiment,SSHSS,1,odd,83958,NA,NA,198199,199403,186986,3911,NA,NA,199296,3921,NA,NA,199404,199881,199288,Flanker Task,62,37617,64,yes,1024
incongruent,96.92307692,96.92307692,588.9076923,588.9076923,black,legacy,legacy,legacy,0,uniform,1,undefined,1,s,0,0,0,64,64,64,0,64,0,64,0,0,0,64,64,64,Sun Sep  9 20:22:07 2018,1500,The main experiment item,yes,FlankerTask.osexp,/Users/hannahrae97/Desktop,no,mono,no,18,no,white,no,yes,768,legacy,64,64,/Users/hannahrae97/Desktop/CTsubject-1.csv,legacy,Kafkaesque Koffka,3.2.5,0,s,NA,h,NA,NA,s,662,NA,80026,NA,NA,662,2,legacy,1024,2,48000,-16,experiment,HHSHH,1,odd,83958,NA,NA,199895,201105,186986,3911,NA,NA,200996,3921,NA,NA,201105,201769,200988,Flanker Task,63,38279,65,yes,1024
incongruent,96.96969697,96.96969697,587.8636364,587.8636364,black,legacy,legacy,legacy,0,uniform,1,undefined,1,h,0,0,0,65,65,65,0,65,0,65,0,0,0,65,65,65,Sun Sep  9 20:22:07 2018,1500,The main experiment item,yes,FlankerTask.osexp,/Users/hannahrae97/Desktop,no,mono,no,18,no,white,no,yes,768,legacy,65,65,/Users/hannahrae97/Desktop/CTsubject-1.csv,legacy,Kafkaesque Koffka,3.2.5,0,h,NA,h,NA,NA,h,520,NA,80026,NA,NA,520,2,legacy,1024,2,48000,-16,experiment,SSHSS,1,odd,83958,NA,NA,201780,202992,186986,3911,NA,NA,202879,3921,NA,NA,202992,203514,202870,Flanker Task,64,38799,66,yes,1024
Congruent,97.01492537,97.01492537,585.9402985,585.9402985,black,legacy,legacy,legacy,0,uniform,1,undefined,1,s,0,0,0,66,66,66,0,66,0,66,0,0,0,66,66,66,Sun Sep  9 20:22:07 2018,1500,The main experiment item,yes,FlankerTask.osexp,/Users/hannahrae97/Desktop,no,mono,no,18,no,white,no,yes,768,legacy,66,66,/Users/hannahrae97/Desktop/CTsubject-1.csv,legacy,Kafkaesque Koffka,3.2.5,0,s,NA,h,NA,NA,s,459,NA,80026,NA,NA,459,2,legacy,1024,2,48000,-16,experiment,SSSSS,1,odd,83958,NA,NA,203526,204735,186986,3911,NA,NA,204626,3921,NA,NA,204735,205196,204616,Flanker Task,65,39258,67,yes,1024
incongruent,97.05882353,97.05882353,586.0882353,586.0882353,black,legacy,legacy,legacy,0,uniform,1,undefined,1,h,0,0,0,67,67,67,0,67,0,67,0,0,0,67,67,67,Sun Sep  9 20:22:07 2018,1500,The main experiment item,yes,FlankerTask.osexp,/Users/hannahrae97/Desktop,no,mono,no,18,no,white,no,yes,768,legacy,67,67,/Users/hannahrae97/Desktop/CTsubject-1.csv,legacy,Kafkaesque Koffka,3.2.5,0,h,NA,h,NA,NA,h,596,NA,80026,NA,NA,596,2,legacy,1024,2,48000,-16,experiment,SSHSS,1,odd,83958,NA,NA,205212,206417,186986,3911,NA,NA,206308,3921,NA,NA,206417,207015,206300,Flanker Task,66,39854,68,yes,1024
congruent,97.10144928,97.10144928,585.884058,585.884058,black,legacy,legacy,legacy,0,uniform,1,undefined,1,h,0,0,0,68,68,68,0,68,0,68,0,0,0,68,68,68,Sun Sep  9 20:22:07 2018,1500,The main experiment item,yes,FlankerTask.osexp,/Users/hannahrae97/Desktop,no,mono,no,18,no,white,no,yes,768,legacy,68,68,/Users/hannahrae97/Desktop/CTsubject-1.csv,legacy,Kafkaesque Koffka,3.2.5,0,h,NA,h,NA,NA,h,572,NA,80026,NA,NA,572,2,legacy,1024,2,48000,-16,experiment,HHHHH,1,odd,83958,NA,NA,207028,208243,186986,3911,NA,NA,208132,3921,NA,NA,208243,208817,208122,Flanker Task,67,40426,69,yes,1024
Congruent,97.14285714,97.14285714,583.8428571,583.8428571,black,legacy,legacy,legacy,0,uniform,1,undefined,1,s,0,0,0,69,69,69,0,69,0,69,0,0,0,69,69,69,Sun Sep  9 20:22:07 2018,1500,The main experiment item,yes,FlankerTask.osexp,/Users/hannahrae97/Desktop,no,mono,no,18,no,white,no,yes,768,legacy,69,69,/Users/hannahrae97/Desktop/CTsubject-1.csv,legacy,Kafkaesque Koffka,3.2.5,0,s,NA,h,NA,NA,s,443,NA,80026,NA,NA,443,2,legacy,1024,2,48000,-16,experiment,SSSSS,1,odd,83958,NA,NA,208829,210037,186986,3911,NA,NA,209930,3921,NA,NA,210038,210483,209920,Flanker Task,68,40869,70,yes,1024
Congruent,97.18309859,97.18309859,582.7042254,582.7042254,black,legacy,legacy,legacy,0,uniform,1,undefined,1,s,0,0,0,70,70,70,0,70,0,70,0,0,0,70,70,70,Sun Sep  9 20:22:07 2018,1500,The main experiment item,yes,FlankerTask.osexp,/Users/hannahrae97/Desktop,no,mono,no,18,no,white,no,yes,768,legacy,70,70,/Users/hannahrae97/Desktop/CTsubject-1.csv,legacy,Kafkaesque Koffka,3.2.5,0,s,NA,h,NA,NA,s,503,NA,80026,NA,NA,503,2,legacy,1024,2,48000,-16,experiment,SSSSS,1,odd,83958,NA,NA,210495,211702,186986,3911,NA,NA,211591,3921,NA,NA,211702,212207,211582,Flanker Task,69,41372,71,yes,1024
incongruent,95.83333333,95.83333333,581.2777778,581.2777778,black,legacy,legacy,legacy,0,uniform,0,undefined,0,s,0,0,0,71,71,71,0,71,0,71,0,0,0,71,71,71,Sun Sep  9 20:22:07 2018,1500,The main experiment item,yes,FlankerTask.osexp,/Users/hannahrae97/Desktop,no,mono,no,18,no,white,no,yes,768,legacy,71,71,/Users/hannahrae97/Desktop/CTsubject-1.csv,legacy,Kafkaesque Koffka,3.2.5,0,h,NA,h,NA,NA,h,480,NA,80026,NA,NA,480,2,legacy,1024,2,48000,-16,experiment,HHSHH,1,odd,83958,NA,NA,212220,213424,186986,3911,NA,NA,213314,3921,NA,NA,213424,213906,213306,Flanker Task,69,41852,72,yes,1024
incongruent,95.89041096,95.89041096,581.8082192,581.8082192,black,legacy,legacy,legacy,0,uniform,1,undefined,1,h,0,0,0,72,72,72,0,72,0,72,0,0,0,72,72,72,Sun Sep  9 20:22:07 2018,1500,The main experiment item,yes,FlankerTask.osexp,/Users/hannahrae97/Desktop,no,mono,no,18,no,white,no,yes,768,legacy,72,72,/Users/hannahrae97/Desktop/CTsubject-1.csv,legacy,Kafkaesque Koffka,3.2.5,0,h,NA,h,NA,NA,h,620,NA,80026,NA,NA,620,2,legacy,1024,2,48000,-16,experiment,SSHSS,1,odd,83958,NA,NA,214426,215640,213918,3911,NA,NA,215529,3921,NA,NA,215640,216262,215521,Flanker Task,70,42472,73,yes,1024
congruent,95.94594595,95.94594595,581.7432432,581.7432432,black,legacy,legacy,legacy,0,uniform,1,undefined,1,h,0,0,0,73,73,73,0,73,0,73,0,0,0,73,73,73,Sun Sep  9 20:22:07 2018,1500,The main experiment item,yes,FlankerTask.osexp,/Users/hannahrae97/Desktop,no,mono,no,18,no,white,no,yes,768,legacy,73,73,/Users/hannahrae97/Desktop/CTsubject-1.csv,legacy,Kafkaesque Koffka,3.2.5,0,h,NA,h,NA,NA,h,577,NA,80026,NA,NA,577,2,legacy,1024,2,48000,-16,experiment,HHHHH,1,odd,83958,NA,NA,216274,217483,213918,3911,NA,NA,217372,3921,NA,NA,217483,218062,217363,Flanker Task,71,43049,74,yes,1024
congruent,96,96,579.8666667,579.8666667,black,legacy,legacy,legacy,0,uniform,1,undefined,1,h,0,0,0,74,74,74,0,74,0,74,0,0,0,74,74,74,Sun Sep  9 20:22:07 2018,1500,The main experiment item,yes,FlankerTask.osexp,/Users/hannahrae97/Desktop,no,mono,no,18,no,white,no,yes,768,legacy,74,74,/Users/hannahrae97/Desktop/CTsubject-1.csv,legacy,Kafkaesque Koffka,3.2.5,0,h,NA,h,NA,NA,h,441,NA,80026,NA,NA,441,2,legacy,1024,2,48000,-16,experiment,HHHHH,1,odd,83958,NA,NA,218074,219285,213918,3911,NA,NA,219177,3921,NA,NA,219285,219728,219167,Flanker Task,72,43490,75,yes,1024
congruent,96.05263158,96.05263158,580.2236842,580.2236842,black,legacy,legacy,legacy,0,uniform,1,undefined,1,h,0,0,0,75,75,75,0,75,0,75,0,0,0,75,75,75,Sun Sep  9 20:22:07 2018,1500,The main experiment item,yes,FlankerTask.osexp,/Users/hannahrae97/Desktop,no,mono,no,18,no,white,no,yes,768,legacy,75,75,/Users/hannahrae97/Desktop/CTsubject-1.csv,legacy,Kafkaesque Koffka,3.2.5,0,h,NA,h,NA,NA,h,607,NA,80026,NA,NA,607,2,legacy,1024,2,48000,-16,experiment,HHHHH,1,odd,83958,NA,NA,219740,220949,213918,3911,NA,NA,220840,3921,NA,NA,220949,221558,220832,Flanker Task,73,44097,76,yes,1024
incongruent,96.1038961,96.1038961,582.7532468,582.7532468,black,legacy,legacy,legacy,0,uniform,1,undefined,1,h,0,0,0,76,76,76,0,76,0,76,0,0,0,76,76,76,Sun Sep  9 20:22:07 2018,1500,The main experiment item,yes,FlankerTask.osexp,/Users/hannahrae97/Desktop,no,mono,no,18,no,white,no,yes,768,legacy,76,76,/Users/hannahrae97/Desktop/CTsubject-1.csv,legacy,Kafkaesque Koffka,3.2.5,0,h,NA,h,NA,NA,h,775,NA,80026,NA,NA,775,2,legacy,1024,2,48000,-16,experiment,SSHSS,1,odd,83958,NA,NA,221573,222783,213918,3911,NA,NA,222674,3921,NA,NA,222784,223561,222666,Flanker Task,74,44872,77,yes,1024
Congruent,96.15384615,96.15384615,582.3076923,582.3076923,black,legacy,legacy,legacy,0,uniform,1,undefined,1,s,0,0,0,77,77,77,0,77,0,77,0,0,0,77,77,77,Sun Sep  9 20:22:07 2018,1500,The main experiment item,yes,FlankerTask.osexp,/Users/hannahrae97/Desktop,no,mono,no,18,no,white,no,yes,768,legacy,77,77,/Users/hannahrae97/Desktop/CTsubject-1.csv,legacy,Kafkaesque Koffka,3.2.5,0,s,NA,h,NA,NA,s,548,NA,80026,NA,NA,548,2,legacy,1024,2,48000,-16,experiment,SSSSS,1,odd,83958,NA,NA,223572,224791,213918,3911,NA,NA,224680,3921,NA,NA,224791,225341,224672,Flanker Task,75,45420,78,yes,1024
Congruent,96.20253165,96.20253165,582.443038,582.443038,black,legacy,legacy,legacy,0,uniform,1,undefined,1,s,0,0,0,78,78,78,0,78,0,78,0,0,0,78,78,78,Sun Sep  9 20:22:07 2018,1500,The main experiment item,yes,FlankerTask.osexp,/Users/hannahrae97/Desktop,no,mono,no,18,no,white,no,yes,768,legacy,78,78,/Users/hannahrae97/Desktop/CTsubject-1.csv,legacy,Kafkaesque Koffka,3.2.5,0,s,NA,h,NA,NA,s,593,NA,80026,NA,NA,593,2,legacy,1024,2,48000,-16,experiment,SSSSS,1,odd,83958,NA,NA,225353,226562,213918,3911,NA,NA,226450,3921,NA,NA,226562,227157,226441,Flanker Task,76,46013,79,yes,1024
Congruent,96.25,96.25,582.0125,582.0125,black,legacy,legacy,legacy,0,uniform,1,undefined,1,s,0,0,0,79,79,79,0,79,0,79,0,0,0,79,79,79,Sun Sep  9 20:22:07 2018,1500,The main experiment item,yes,FlankerTask.osexp,/Users/hannahrae97/Desktop,no,mono,no,18,no,white,no,yes,768,legacy,79,79,/Users/hannahrae97/Desktop/CTsubject-1.csv,legacy,Kafkaesque Koffka,3.2.5,0,s,NA,h,NA,NA,s,548,NA,80026,NA,NA,548,2,legacy,1024,2,48000,-16,experiment,SSSSS,1,odd,83958,NA,NA,227169,228379,213918,3911,NA,NA,228269,3921,NA,NA,228379,228929,228261,Flanker Task,77,46561,80,yes,1024
incongruent,96.2962963,96.2962963,583.9506173,583.9506173,black,legacy,legacy,legacy,0,uniform,1,undefined,1,s,0,0,0,80,80,80,0,80,0,80,0,0,0,80,80,80,Sun Sep  9 20:22:07 2018,600,The main experiment item,yes,FlankerTask.osexp,/Users/hannahrae97/Desktop,no,mono,no,18,no,white,no,yes,768,legacy,0,79,/Users/hannahrae97/Desktop/CTsubject-1.csv,legacy,Kafkaesque Koffka,3.2.5,0,s,NA,h,s,NA,s,739,NA,80026,22979,NA,739,2,legacy,1024,2,48000,-16,experiment,HHSHH,1,odd,83958,252948,NA,228940,253151,213918,3911,NA,NA,253041,3921,229967,NA,253151,253892,253031,Flanker Task,78,47300,81,yes,1024
incongruent,96.34146341,96.34146341,583.2195122,583.2195122,black,legacy,legacy,legacy,0,uniform,1,undefined,1,h,0,0,0,81,81,81,0,81,0,81,0,0,0,81,81,81,Sun Sep  9 20:22:07 2018,600,The main experiment item,yes,FlankerTask.osexp,/Users/hannahrae97/Desktop,no,mono,no,18,no,white,no,yes,768,legacy,1,79,/Users/hannahrae97/Desktop/CTsubject-1.csv,legacy,Kafkaesque Koffka,3.2.5,0,h,NA,h,s,NA,h,524,NA,80026,22979,NA,524,2,legacy,1024,2,48000,-16,experiment,SSHSS,1,odd,83958,252948,NA,254412,255621,213918,3911,253904,NA,255513,3921,229967,NA,255621,256147,255505,Flanker Task,79,47824,82,yes,1024
incongruent,96.38554217,96.38554217,582.5301205,582.5301205,black,legacy,legacy,legacy,0,uniform,1,undefined,1,h,0,0,0,82,82,82,0,82,0,82,0,0,0,82,82,82,Sun Sep  9 20:22:07 2018,600,The main experiment item,yes,FlankerTask.osexp,/Users/hannahrae97/Desktop,no,mono,no,18,no,white,no,yes,768,legacy,2,79,/Users/hannahrae97/Desktop/CTsubject-1.csv,legacy,Kafkaesque Koffka,3.2.5,0,h,NA,h,s,NA,h,526,NA,80026,22979,NA,526,2,legacy,1024,2,48000,-16,experiment,SSHSS,1,odd,83958,252948,NA,256159,257368,213918,3911,253904,NA,257259,3921,229967,NA,257368,257895,257250,Flanker Task,80,48350,83,yes,1024
incongruent,96.42857143,96.42857143,580.0952381,580.0952381,black,legacy,legacy,legacy,0,uniform,1,undefined,1,h,0,0,0,83,83,83,0,83,0,83,0,0,0,83,83,83,Sun Sep  9 20:22:07 2018,600,The main experiment item,yes,FlankerTask.osexp,/Users/hannahrae97/Desktop,no,mono,no,18,no,white,no,yes,768,legacy,3,79,/Users/hannahrae97/Desktop/CTsubject-1.csv,legacy,Kafkaesque Koffka,3.2.5,0,h,NA,h,s,NA,h,378,NA,80026,22979,NA,378,2,legacy,1024,2,48000,-16,experiment,SSHSS,1,odd,83958,252948,NA,257910,259120,213918,3911,253904,NA,259009,3921,229967,NA,259121,259500,259001,Flanker Task,81,48728,84,yes,1024
Congruent,95.29411765,95.29411765,577.0470588,577.0470588,black,legacy,legacy,legacy,0,uniform,0,undefined,0,s,0,0,0,84,84,84,0,84,0,84,0,0,0,84,84,84,Sun Sep  9 20:22:07 2018,600,The main experiment item,yes,FlankerTask.osexp,/Users/hannahrae97/Desktop,no,mono,no,18,no,white,no,yes,768,legacy,4,79,/Users/hannahrae97/Desktop/CTsubject-1.csv,legacy,Kafkaesque Koffka,3.2.5,0,h,NA,h,s,NA,h,321,NA,80026,22979,NA,321,2,legacy,1024,2,48000,-16,experiment,SSSSS,1,odd,83958,252948,NA,259513,260725,213918,3911,253904,NA,260617,3921,229967,NA,260725,261047,260608,Flanker Task,81,49049,85,yes,1024
Congruent,95.34883721,95.34883721,575.1860465,575.1860465,black,legacy,legacy,legacy,0,uniform,1,undefined,1,s,0,0,0,85,85,85,0,85,0,85,0,0,0,85,85,85,Sun Sep  9 20:22:07 2018,600,The main experiment item,yes,FlankerTask.osexp,/Users/hannahrae97/Desktop,no,mono,no,18,no,white,no,yes,768,legacy,5,79,/Users/hannahrae97/Desktop/CTsubject-1.csv,legacy,Kafkaesque Koffka,3.2.5,0,s,NA,h,s,NA,s,417,NA,80026,22979,NA,417,2,legacy,1024,2,48000,-16,experiment,SSSSS,1,odd,83958,252948,NA,261567,262778,261059,3911,253904,NA,262665,3921,229967,NA,262778,263197,262657,Flanker Task,82,49466,86,yes,1024
congruent,95.40229885,95.40229885,573.8505747,573.8505747,black,legacy,legacy,legacy,0,uniform,1,undefined,1,h,0,0,0,86,86,86,0,86,0,86,0,0,0,86,86,86,Sun Sep  9 20:22:07 2018,600,The main experiment item,yes,FlankerTask.osexp,/Users/hannahrae97/Desktop,no,mono,no,18,no,white,no,yes,768,legacy,6,79,/Users/hannahrae97/Desktop/CTsubject-1.csv,legacy,Kafkaesque Koffka,3.2.5,0,h,NA,h,s,NA,h,459,NA,80026,22979,NA,459,2,legacy,1024,2,48000,-16,experiment,HHHHH,1,odd,83958,252948,NA,263208,264416,261059,3911,253904,NA,264306,3921,229967,NA,264417,264877,264298,Flanker Task,83,49925,87,yes,1024
Congruent,94.31818182,94.31818182,572.1590909,572.1590909,black,legacy,legacy,legacy,0,uniform,0,undefined,0,s,0,0,0,87,87,87,0,87,0,87,0,0,0,87,87,87,Sun Sep  9 20:22:07 2018,600,The main experiment item,yes,FlankerTask.osexp,/Users/hannahrae97/Desktop,no,mono,no,18,no,white,no,yes,768,legacy,7,79,/Users/hannahrae97/Desktop/CTsubject-1.csv,legacy,Kafkaesque Koffka,3.2.5,0,h,NA,h,s,NA,h,425,NA,80026,22979,NA,425,2,legacy,1024,2,48000,-16,experiment,SSSSS,1,odd,83958,252948,NA,264889,266103,261059,3911,253904,NA,265994,3921,229967,NA,266103,266530,265985,Flanker Task,83,50350,88,yes,1024
incongruent,93.25842697,93.25842697,570.4831461,570.4831461,black,legacy,legacy,legacy,0,uniform,0,undefined,0,s,0,0,0,88,88,88,0,88,0,88,0,0,0,88,88,88,Sun Sep  9 20:22:07 2018,600,The main experiment item,yes,FlankerTask.osexp,/Users/hannahrae97/Desktop,no,mono,no,18,no,white,no,yes,768,legacy,8,79,/Users/hannahrae97/Desktop/CTsubject-1.csv,legacy,Kafkaesque Koffka,3.2.5,0,h,NA,h,s,NA,h,423,NA,80026,22979,NA,423,2,legacy,1024,2,48000,-16,experiment,HHSHH,1,odd,83958,252948,NA,267050,268258,266542,3911,253904,NA,268150,3921,229967,NA,268258,268683,268141,Flanker Task,83,50773,89,yes,1024
incongruent,93.33333333,93.33333333,569.5444444,569.5444444,black,legacy,legacy,legacy,0,uniform,1,undefined,1,s,0,0,0,89,89,89,0,89,0,89,0,0,0,89,89,89,Sun Sep  9 20:22:07 2018,600,The main experiment item,yes,FlankerTask.osexp,/Users/hannahrae97/Desktop,no,mono,no,18,no,white,no,yes,768,legacy,9,79,/Users/hannahrae97/Desktop/CTsubject-1.csv,legacy,Kafkaesque Koffka,3.2.5,0,s,NA,h,s,NA,s,486,NA,80026,22979,NA,486,2,legacy,1024,2,48000,-16,experiment,HHSHH,1,odd,83958,252948,NA,269203,270413,268695,3911,253904,NA,270303,3921,229967,NA,270413,270901,270293,Flanker Task,84,51259,90,yes,1024
Congruent,93.40659341,93.40659341,568.7362637,568.7362637,black,legacy,legacy,legacy,0,uniform,1,undefined,1,s,0,0,0,90,90,90,0,90,0,90,0,0,0,90,90,90,Sun Sep  9 20:22:07 2018,600,The main experiment item,yes,FlankerTask.osexp,/Users/hannahrae97/Desktop,no,mono,no,18,no,white,no,yes,768,legacy,10,79,/Users/hannahrae97/Desktop/CTsubject-1.csv,legacy,Kafkaesque Koffka,3.2.5,0,s,NA,h,s,NA,s,496,NA,80026,22979,NA,496,2,legacy,1024,2,48000,-16,experiment,SSSSS,1,odd,83958,252948,NA,270913,272123,268695,3911,253904,NA,272010,3921,229967,NA,272124,272622,272002,Flanker Task,85,51755,91,yes,1024
incongruent,92.39130435,92.39130435,566.4565217,566.4565217,black,legacy,legacy,legacy,0,uniform,0,undefined,0,s,0,0,0,91,91,91,0,91,0,91,0,0,0,91,91,91,Sun Sep  9 20:22:07 2018,600,The main experiment item,yes,FlankerTask.osexp,/Users/hannahrae97/Desktop,no,mono,no,18,no,white,no,yes,768,legacy,11,79,/Users/hannahrae97/Desktop/CTsubject-1.csv,legacy,Kafkaesque Koffka,3.2.5,0,h,NA,h,s,NA,h,359,NA,80026,22979,NA,359,2,legacy,1024,2,48000,-16,experiment,HHSHH,1,odd,83958,252948,NA,272633,273843,268695,3911,253904,NA,273733,3921,229967,NA,273844,274205,273724,Flanker Task,85,52114,92,yes,1024
Congruent,92.47311828,92.47311828,563.6021505,563.6021505,black,legacy,legacy,legacy,0,uniform,1,undefined,1,s,0,0,0,92,92,92,0,92,0,92,0,0,0,92,92,92,Sun Sep  9 20:22:07 2018,600,The main experiment item,yes,FlankerTask.osexp,/Users/hannahrae97/Desktop,no,mono,no,18,no,white,no,yes,768,legacy,12,79,/Users/hannahrae97/Desktop/CTsubject-1.csv,legacy,Kafkaesque Koffka,3.2.5,0,s,NA,h,s,NA,s,301,NA,80026,22979,NA,301,2,legacy,1024,2,48000,-16,experiment,SSSSS,1,odd,83958,252948,NA,274725,275929,274217,3911,253904,NA,275821,3921,229967,NA,275929,276232,275813,Flanker Task,86,52415,93,yes,1024
congruent,91.4893617,91.4893617,560.5851064,560.5851064,black,legacy,legacy,legacy,0,uniform,0,undefined,0,h,0,0,0,93,93,93,0,93,0,93,0,0,0,93,93,93,Sun Sep  9 20:22:07 2018,600,The main experiment item,yes,FlankerTask.osexp,/Users/hannahrae97/Desktop,no,mono,no,18,no,white,no,yes,768,legacy,13,79,/Users/hannahrae97/Desktop/CTsubject-1.csv,legacy,Kafkaesque Koffka,3.2.5,0,s,NA,h,s,NA,s,280,NA,80026,22979,NA,280,2,legacy,1024,2,48000,-16,experiment,HHHHH,1,odd,83958,252948,NA,276243,277451,274217,3911,253904,NA,277343,3921,229967,NA,277451,277733,277335,Flanker Task,86,52695,94,yes,1024
incongruent,91.57894737,91.57894737,559.0105263,559.0105263,black,legacy,legacy,legacy,0,uniform,1,undefined,1,s,0,0,0,94,94,94,0,94,0,94,0,0,0,94,94,94,Sun Sep  9 20:22:07 2018,600,The main experiment item,yes,FlankerTask.osexp,/Users/hannahrae97/Desktop,no,mono,no,18,no,white,no,yes,768,legacy,14,79,/Users/hannahrae97/Desktop/CTsubject-1.csv,legacy,Kafkaesque Koffka,3.2.5,0,s,NA,h,s,NA,s,411,NA,80026,22979,NA,411,2,legacy,1024,2,48000,-16,experiment,HHSHH,1,odd,83958,252948,NA,278252,279464,277744,3911,253904,NA,279353,3921,229967,NA,279464,279877,279345,Flanker Task,87,53106,95,yes,1024
incongruent,91.66666667,91.66666667,558.4479167,558.4479167,black,legacy,legacy,legacy,0,uniform,1,undefined,1,s,0,0,0,95,95,95,0,95,0,95,0,0,0,95,95,95,Sun Sep  9 20:22:07 2018,600,The main experiment item,yes,FlankerTask.osexp,/Users/hannahrae97/Desktop,no,mono,no,18,no,white,no,yes,768,legacy,15,79,/Users/hannahrae97/Desktop/CTsubject-1.csv,legacy,Kafkaesque Koffka,3.2.5,0,s,NA,h,s,NA,s,505,NA,80026,22979,NA,505,2,legacy,1024,2,48000,-16,experiment,HHSHH,1,odd,83958,252948,NA,279889,281106,277744,3911,253904,NA,280996,3921,229967,NA,281106,281613,280988,Flanker Task,88,53611,96,yes,1024
congruent,91.75257732,91.75257732,556.9587629,556.9587629,black,legacy,legacy,legacy,0,uniform,1,undefined,1,h,0,0,0,96,96,96,0,96,0,96,0,0,0,96,96,96,Sun Sep  9 20:22:07 2018,600,The main experiment item,yes,FlankerTask.osexp,/Users/hannahrae97/Desktop,no,mono,no,18,no,white,no,yes,768,legacy,16,79,/Users/hannahrae97/Desktop/CTsubject-1.csv,legacy,Kafkaesque Koffka,3.2.5,0,h,NA,h,s,NA,h,414,NA,80026,22979,NA,414,2,legacy,1024,2,48000,-16,experiment,HHHHH,1,odd,83958,252948,NA,281625,282838,277744,3911,253904,NA,282726,3921,229967,NA,282838,283254,282718,Flanker Task,89,54025,97,yes,1024
congruent,91.83673469,91.83673469,556.3877551,556.3877551,black,legacy,legacy,legacy,0,uniform,1,undefined,1,h,0,0,0,97,97,97,0,97,0,97,0,0,0,97,97,97,Sun Sep  9 20:22:07 2018,600,The main experiment item,yes,FlankerTask.osexp,/Users/hannahrae97/Desktop,no,mono,no,18,no,white,no,yes,768,legacy,17,79,/Users/hannahrae97/Desktop/CTsubject-1.csv,legacy,Kafkaesque Koffka,3.2.5,0,h,NA,h,s,NA,h,501,NA,80026,22979,NA,501,2,legacy,1024,2,48000,-16,experiment,HHHHH,1,odd,83958,252948,NA,283265,284472,277744,3911,253904,NA,284364,3921,229967,NA,284472,284975,284356,Flanker Task,90,54526,98,yes,1024
incongruent,91.91919192,91.91919192,556.0606061,556.0606061,black,legacy,legacy,legacy,0,uniform,1,undefined,1,s,0,0,0,98,98,98,0,98,0,98,0,0,0,98,98,98,Sun Sep  9 20:22:07 2018,600,The main experiment item,yes,FlankerTask.osexp,/Users/hannahrae97/Desktop,no,mono,no,18,no,white,no,yes,768,legacy,18,79,/Users/hannahrae97/Desktop/CTsubject-1.csv,legacy,Kafkaesque Koffka,3.2.5,0,s,NA,h,s,NA,s,524,NA,80026,22979,NA,524,2,legacy,1024,2,48000,-16,experiment,HHSHH,1,odd,83958,252948,NA,284987,286197,277744,3911,253904,NA,286085,3921,229967,NA,286198,286724,286075,Flanker Task,91,55050,99,yes,1024
incongruent,92,92,555.5,555.5,black,legacy,legacy,legacy,0,uniform,1,undefined,1,h,0,0,0,99,99,99,0,99,0,99,0,0,0,99,99,99,Sun Sep  9 20:22:07 2018,600,The main experiment item,yes,FlankerTask.osexp,/Users/hannahrae97/Desktop,no,mono,no,18,no,white,no,yes,768,legacy,19,79,/Users/hannahrae97/Desktop/CTsubject-1.csv,legacy,Kafkaesque Koffka,3.2.5,0,h,NA,h,s,NA,h,500,NA,80026,22979,NA,500,2,legacy,1024,2,48000,-16,experiment,SSHSS,1,odd,83958,252948,NA,286735,287944,277744,3911,253904,NA,287836,3921,229967,NA,287945,288447,287828,Flanker Task,92,55550,100,yes,1024
congruent,92.07920792,92.07920792,555.0792079,555.0792079,black,legacy,legacy,legacy,0,uniform,1,undefined,1,h,0,0,0,100,100,100,0,100,0,100,0,0,0,100,100,100,Sun Sep  9 20:22:07 2018,600,The main experiment item,yes,FlankerTask.osexp,/Users/hannahrae97/Desktop,no,mono,no,18,no,white,no,yes,768,legacy,20,79,/Users/hannahrae97/Desktop/CTsubject-1.csv,legacy,Kafkaesque Koffka,3.2.5,0,h,NA,h,s,NA,h,513,NA,80026,22979,NA,513,2,legacy,1024,2,48000,-16,experiment,HHHHH,1,odd,83958,252948,NA,288459,289666,277744,3911,253904,NA,289558,3921,229967,NA,289667,290182,289549,Flanker Task,93,56063,101,yes,1024
Congruent,91.17647059,91.17647059,553.6764706,553.6764706,black,legacy,legacy,legacy,0,uniform,0,undefined,0,s,0,0,0,101,101,101,0,101,0,101,0,0,0,101,101,101,Sun Sep  9 20:22:07 2018,600,The main experiment item,yes,FlankerTask.osexp,/Users/hannahrae97/Desktop,no,mono,no,18,no,white,no,yes,768,legacy,21,79,/Users/hannahrae97/Desktop/CTsubject-1.csv,legacy,Kafkaesque Koffka,3.2.5,0,h,NA,h,s,NA,h,412,NA,80026,22979,NA,412,2,legacy,1024,2,48000,-16,experiment,SSSSS,1,odd,83958,252948,NA,290193,291403,277744,3911,253904,NA,291295,3921,229967,NA,291403,291817,291286,Flanker Task,93,56475,102,yes,1024
congruent,91.26213592,91.26213592,552.3106796,552.3106796,black,legacy,legacy,legacy,0,uniform,1,undefined,1,h,0,0,0,102,102,102,0,102,0,102,0,0,0,102,102,102,Sun Sep  9 20:22:07 2018,600,The main experiment item,yes,FlankerTask.osexp,/Users/hannahrae97/Desktop,no,mono,no,18,no,white,no,yes,768,legacy,22,79,/Users/hannahrae97/Desktop/CTsubject-1.csv,legacy,Kafkaesque Koffka,3.2.5,0,h,NA,h,s,NA,h,413,NA,80026,22979,NA,413,2,legacy,1024,2,48000,-16,experiment,HHHHH,1,odd,83958,252948,NA,292336,293547,291828,3911,253904,NA,293433,3921,229967,NA,293548,293963,293425,Flanker Task,94,56888,103,yes,1024
incongruent,90.38461538,90.38461538,551.4519231,551.4519231,black,legacy,legacy,legacy,0,uniform,0,undefined,0,h,0,0,0,103,103,103,0,103,0,103,0,0,0,103,103,103,Sun Sep  9 20:22:07 2018,600,The main experiment item,yes,FlankerTask.osexp,/Users/hannahrae97/Desktop,no,mono,no,18,no,white,no,yes,768,legacy,23,79,/Users/hannahrae97/Desktop/CTsubject-1.csv,legacy,Kafkaesque Koffka,3.2.5,0,s,NA,h,s,NA,s,463,NA,80026,22979,NA,463,2,legacy,1024,2,48000,-16,experiment,SSHSS,1,odd,83958,252948,NA,293975,295179,291828,3911,253904,NA,295071,3921,229967,NA,295180,295645,295063,Flanker Task,94,57351,104,yes,1024
congruent,90.47619048,90.47619048,550.4761905,550.4761905,black,legacy,legacy,legacy,0,uniform,1,undefined,1,h,0,0,0,104,104,104,0,104,0,104,0,0,0,104,104,104,Sun Sep  9 20:22:07 2018,600,The main experiment item,yes,FlankerTask.osexp,/Users/hannahrae97/Desktop,no,mono,no,18,no,white,no,yes,768,legacy,24,79,/Users/hannahrae97/Desktop/CTsubject-1.csv,legacy,Kafkaesque Koffka,3.2.5,0,h,NA,h,s,NA,h,449,NA,80026,22979,NA,449,2,legacy,1024,2,48000,-16,experiment,HHHHH,1,odd,83958,252948,NA,296165,297374,295657,3911,253904,NA,297261,3921,229967,NA,297374,297825,297252,Flanker Task,95,57800,105,yes,1024
incongruent,90.56603774,90.56603774,549.8490566,549.8490566,black,legacy,legacy,legacy,0,uniform,1,undefined,1,s,0,0,0,105,105,105,0,105,0,105,0,0,0,105,105,105,Sun Sep  9 20:22:07 2018,600,The main experiment item,yes,FlankerTask.osexp,/Users/hannahrae97/Desktop,no,mono,no,18,no,white,no,yes,768,legacy,25,79,/Users/hannahrae97/Desktop/CTsubject-1.csv,legacy,Kafkaesque Koffka,3.2.5,0,s,NA,h,s,NA,s,484,NA,80026,22979,NA,484,2,legacy,1024,2,48000,-16,experiment,HHSHH,1,odd,83958,252948,NA,297837,299047,295657,3911,253904,NA,298938,3921,229967,NA,299047,299533,298931,Flanker Task,96,58284,106,yes,1024
incongruent,90.65420561,90.65420561,548.8785047,548.8785047,black,legacy,legacy,legacy,0,uniform,1,undefined,1,h,0,0,0,106,106,106,0,106,0,106,0,0,0,106,106,106,Sun Sep  9 20:22:07 2018,600,The main experiment item,yes,FlankerTask.osexp,/Users/hannahrae97/Desktop,no,mono,no,18,no,white,no,yes,768,legacy,26,79,/Users/hannahrae97/Desktop/CTsubject-1.csv,legacy,Kafkaesque Koffka,3.2.5,0,h,NA,h,s,NA,h,446,NA,80026,22979,NA,446,2,legacy,1024,2,48000,-16,experiment,SSHSS,1,odd,83958,252948,NA,299545,300755,295657,3911,253904,NA,300645,3921,229967,NA,300755,301203,300636,Flanker Task,97,58730,107,yes,1024
incongruent,90.74074074,90.74074074,548.5555556,548.5555556,black,legacy,legacy,legacy,0,uniform,1,undefined,1,s,0,0,0,107,107,107,0,107,0,107,0,0,0,107,107,107,Sun Sep  9 20:22:07 2018,600,The main experiment item,yes,FlankerTask.osexp,/Users/hannahrae97/Desktop,no,mono,no,18,no,white,no,yes,768,legacy,27,79,/Users/hannahrae97/Desktop/CTsubject-1.csv,legacy,Kafkaesque Koffka,3.2.5,0,s,NA,h,s,NA,s,514,NA,80026,22979,NA,514,2,legacy,1024,2,48000,-16,experiment,HHSHH,1,odd,83958,252948,NA,301215,302421,295657,3911,253904,NA,302312,3921,229967,NA,302421,302937,302304,Flanker Task,98,59244,108,yes,1024
incongruent,90.82568807,90.82568807,548.1559633,548.1559633,black,legacy,legacy,legacy,0,uniform,1,undefined,1,h,0,0,0,108,108,108,0,108,0,108,0,0,0,108,108,108,Sun Sep  9 20:22:07 2018,600,The main experiment item,yes,FlankerTask.osexp,/Users/hannahrae97/Desktop,no,mono,no,18,no,white,no,yes,768,legacy,28,79,/Users/hannahrae97/Desktop/CTsubject-1.csv,legacy,Kafkaesque Koffka,3.2.5,0,h,NA,h,s,NA,h,505,NA,80026,22979,NA,505,2,legacy,1024,2,48000,-16,experiment,SSHSS,1,odd,83958,252948,NA,302949,304157,295657,3911,253904,NA,304045,3921,229967,NA,304157,304664,304037,Flanker Task,99,59749,109,yes,1024
incongruent,90,90,545.8,545.8,black,legacy,legacy,legacy,0,uniform,0,undefined,0,h,0,0,0,109,109,109,0,109,0,109,0,0,0,109,109,109,Sun Sep  9 20:22:07 2018,600,The main experiment item,yes,FlankerTask.osexp,/Users/hannahrae97/Desktop,no,mono,no,18,no,white,no,yes,768,legacy,29,79,/Users/hannahrae97/Desktop/CTsubject-1.csv,legacy,Kafkaesque Koffka,3.2.5,0,s,NA,h,s,NA,s,289,NA,80026,22979,NA,289,2,legacy,1024,2,48000,-16,experiment,SSHSS,1,odd,83958,252948,NA,304676,305883,295657,3911,253904,NA,305775,3921,229967,NA,305883,306174,305765,Flanker Task,99,60038,110,yes,1024
congruent,90.09009009,90.09009009,544.8468468,544.8468468,black,legacy,legacy,legacy,0,uniform,1,undefined,1,h,0,0,0,110,110,110,0,110,0,110,0,0,0,110,110,110,Sun Sep  9 20:22:07 2018,600,The main experiment item,yes,FlankerTask.osexp,/Users/hannahrae97/Desktop,no,mono,no,18,no,white,no,yes,768,legacy,30,79,/Users/hannahrae97/Desktop/CTsubject-1.csv,legacy,Kafkaesque Koffka,3.2.5,0,h,NA,h,s,NA,h,440,NA,80026,22979,NA,440,2,legacy,1024,2,48000,-16,experiment,HHHHH,1,odd,83958,252948,NA,306694,307899,306186,3911,253904,NA,307791,3921,229967,NA,307899,308341,307783,Flanker Task,100,60478,111,yes,1024
incongruent,90.17857143,90.17857143,545.1964286,545.1964286,black,legacy,legacy,legacy,0,uniform,1,undefined,1,h,0,0,0,111,111,111,0,111,0,111,0,0,0,111,111,111,Sun Sep  9 20:22:07 2018,600,The main experiment item,yes,FlankerTask.osexp,/Users/hannahrae97/Desktop,no,mono,no,18,no,white,no,yes,768,legacy,31,79,/Users/hannahrae97/Desktop/CTsubject-1.csv,legacy,Kafkaesque Koffka,3.2.5,0,h,NA,h,s,NA,h,584,NA,80026,22979,NA,584,2,legacy,1024,2,48000,-16,experiment,SSHSS,1,odd,83958,252948,NA,308353,309558,306186,3911,253904,NA,309450,3921,229967,NA,309558,310144,309442,Flanker Task,101,61062,112,yes,1024
Congruent,90.26548673,90.26548673,545.0619469,545.0619469,black,legacy,legacy,legacy,0,uniform,1,undefined,1,s,0,0,0,112,112,112,0,112,0,112,0,0,0,112,112,112,Sun Sep  9 20:22:07 2018,600,The main experiment item,yes,FlankerTask.osexp,/Users/hannahrae97/Desktop,no,mono,no,18,no,white,no,yes,768,legacy,32,79,/Users/hannahrae97/Desktop/CTsubject-1.csv,legacy,Kafkaesque Koffka,3.2.5,0,s,NA,h,s,NA,s,530,NA,80026,22979,NA,530,2,legacy,1024,2,48000,-16,experiment,SSSSS,1,odd,83958,252948,NA,310155,311365,306186,3911,253904,NA,311257,3921,229967,NA,311365,311897,311248,Flanker Task,102,61592,113,yes,1024
Congruent,90.35087719,90.35087719,544.2368421,544.2368421,black,legacy,legacy,legacy,0,uniform,1,undefined,1,s,0,0,0,113,113,113,0,113,0,113,0,0,0,113,113,113,Sun Sep  9 20:22:07 2018,600,The main experiment item,yes,FlankerTask.osexp,/Users/hannahrae97/Desktop,no,mono,no,18,no,white,no,yes,768,legacy,33,79,/Users/hannahrae97/Desktop/CTsubject-1.csv,legacy,Kafkaesque Koffka,3.2.5,0,s,NA,h,s,NA,s,451,NA,80026,22979,NA,451,2,legacy,1024,2,48000,-16,experiment,SSSSS,1,odd,83958,252948,NA,311909,313114,306186,3911,253904,NA,313004,3921,229967,NA,313115,313568,312997,Flanker Task,103,62043,114,yes,1024
Congruent,90.43478261,90.43478261,542.9913043,542.9913043,black,legacy,legacy,legacy,0,uniform,1,undefined,1,s,0,0,0,114,114,114,0,114,0,114,0,0,0,114,114,114,Sun Sep  9 20:22:07 2018,600,The main experiment item,yes,FlankerTask.osexp,/Users/hannahrae97/Desktop,no,mono,no,18,no,white,no,yes,768,legacy,34,79,/Users/hannahrae97/Desktop/CTsubject-1.csv,legacy,Kafkaesque Koffka,3.2.5,0,s,NA,h,s,NA,s,401,NA,80026,22979,NA,401,2,legacy,1024,2,48000,-16,experiment,SSSSS,1,odd,83958,252948,NA,313579,314788,306186,3911,253904,NA,314679,3921,229967,NA,314788,315191,314669,Flanker Task,104,62444,115,yes,1024
incongruent,90.51724138,90.51724138,542.5172414,542.5172414,black,legacy,legacy,legacy,0,uniform,1,undefined,1,h,0,0,0,115,115,115,0,115,0,115,0,0,0,115,115,115,Sun Sep  9 20:22:07 2018,600,The main experiment item,yes,FlankerTask.osexp,/Users/hannahrae97/Desktop,no,mono,no,18,no,white,no,yes,768,legacy,35,79,/Users/hannahrae97/Desktop/CTsubject-1.csv,legacy,Kafkaesque Koffka,3.2.5,0,h,NA,h,s,NA,h,488,NA,80026,22979,NA,488,2,legacy,1024,2,48000,-16,experiment,SSHSS,1,odd,83958,252948,NA,315203,316412,306186,3911,253904,NA,316299,3921,229967,NA,316412,316902,316291,Flanker Task,105,62932,116,yes,1024
Congruent,90.5982906,90.5982906,541.2307692,541.2307692,black,legacy,legacy,legacy,0,uniform,1,undefined,1,s,0,0,0,116,116,116,0,116,0,116,0,0,0,116,116,116,Sun Sep  9 20:22:07 2018,600,The main experiment item,yes,FlankerTask.osexp,/Users/hannahrae97/Desktop,no,mono,no,18,no,white,no,yes,768,legacy,36,79,/Users/hannahrae97/Desktop/CTsubject-1.csv,legacy,Kafkaesque Koffka,3.2.5,0,s,NA,h,s,NA,s,392,NA,80026,22979,NA,392,2,legacy,1024,2,48000,-16,experiment,SSSSS,1,odd,83958,252948,NA,316915,318132,306186,3911,253904,NA,318021,3921,229967,NA,318132,318527,318013,Flanker Task,106,63324,117,yes,1024
incongruent,90.6779661,90.6779661,541.0254237,541.0254237,black,legacy,legacy,legacy,0,uniform,1,undefined,1,s,0,0,0,117,117,117,0,117,0,117,0,0,0,117,117,117,Sun Sep  9 20:22:07 2018,600,The main experiment item,yes,FlankerTask.osexp,/Users/hannahrae97/Desktop,no,mono,no,18,no,white,no,yes,768,legacy,37,79,/Users/hannahrae97/Desktop/CTsubject-1.csv,legacy,Kafkaesque Koffka,3.2.5,0,s,NA,h,s,NA,s,517,NA,80026,22979,NA,517,2,legacy,1024,2,48000,-16,experiment,HHSHH,1,odd,83958,252948,NA,318540,319758,306186,3911,253904,NA,319645,3921,229967,NA,319758,320277,319637,Flanker Task,107,63841,118,yes,1024
incongruent,90.75630252,90.75630252,541.6722689,541.6722689,black,legacy,legacy,legacy,0,uniform,1,undefined,1,s,0,0,0,118,118,118,0,118,0,118,0,0,0,118,118,118,Sun Sep  9 20:22:07 2018,600,The main experiment item,yes,FlankerTask.osexp,/Users/hannahrae97/Desktop,no,mono,no,18,no,white,no,yes,768,legacy,38,79,/Users/hannahrae97/Desktop/CTsubject-1.csv,legacy,Kafkaesque Koffka,3.2.5,0,s,NA,h,s,NA,s,618,NA,80026,22979,NA,618,2,legacy,1024,2,48000,-16,experiment,HHSHH,1,odd,83958,252948,NA,320289,321500,306186,3911,253904,NA,321393,3921,229967,NA,321501,322121,321384,Flanker Task,108,64459,119,yes,1024
incongruent,90,90,540.8166667,540.8166667,black,legacy,legacy,legacy,0,uniform,0,undefined,0,h,0,0,0,119,119,119,0,119,0,119,0,0,0,119,119,119,Sun Sep  9 20:22:07 2018,600,The main experiment item,yes,FlankerTask.osexp,/Users/hannahrae97/Desktop,no,mono,no,18,no,white,no,yes,768,legacy,39,79,/Users/hannahrae97/Desktop/CTsubject-1.csv,legacy,Kafkaesque Koffka,3.2.5,0,s,NA,h,s,NA,s,439,NA,80026,22979,NA,439,2,legacy,1024,2,48000,-16,experiment,SSHSS,1,odd,83958,252948,NA,322642,323850,306186,3911,322134,NA,323739,3921,229967,NA,323851,324292,323729,Flanker Task,108,64898,120,yes,1024
incongruent,90.08264463,90.08264463,540.4958678,540.4958678,black,legacy,legacy,legacy,0,uniform,1,undefined,1,s,0,0,0,120,120,120,0,120,0,120,0,0,0,120,120,120,Sun Sep  9 20:22:07 2018,600,The main experiment item,yes,FlankerTask.osexp,/Users/hannahrae97/Desktop,no,mono,no,18,no,white,no,yes,768,legacy,40,79,/Users/hannahrae97/Desktop/CTsubject-1.csv,legacy,Kafkaesque Koffka,3.2.5,0,s,NA,h,s,NA,s,502,NA,80026,22979,NA,502,2,legacy,1024,2,48000,-16,experiment,HHSHH,1,odd,83958,252948,NA,324815,326021,324304,3911,322134,NA,325911,3921,229967,NA,326021,326525,325903,Flanker Task,109,65400,121,yes,1024
congruent,90.16393443,90.16393443,540.5245902,540.5245902,black,legacy,legacy,legacy,0,uniform,1,undefined,1,h,0,0,0,121,121,121,0,121,0,121,0,0,0,121,121,121,Sun Sep  9 20:22:07 2018,600,The main experiment item,yes,FlankerTask.osexp,/Users/hannahrae97/Desktop,no,mono,no,18,no,white,no,yes,768,legacy,41,79,/Users/hannahrae97/Desktop/CTsubject-1.csv,legacy,Kafkaesque Koffka,3.2.5,0,h,NA,h,s,NA,h,544,NA,80026,22979,NA,544,2,legacy,1024,2,48000,-16,experiment,HHHHH,1,odd,83958,252948,NA,326536,327745,324304,3911,322134,NA,327635,3921,229967,NA,327745,328291,327627,Flanker Task,110,65944,122,yes,1024
incongruent,90.24390244,90.24390244,541.5203252,541.5203252,black,legacy,legacy,legacy,0,uniform,1,undefined,1,h,0,0,0,122,122,122,0,122,0,122,0,0,0,122,122,122,Sun Sep  9 20:22:07 2018,600,The main experiment item,yes,FlankerTask.osexp,/Users/hannahrae97/Desktop,no,mono,no,18,no,white,no,yes,768,legacy,42,79,/Users/hannahrae97/Desktop/CTsubject-1.csv,legacy,Kafkaesque Koffka,3.2.5,0,h,NA,h,s,NA,h,663,NA,80026,22979,NA,663,2,legacy,1024,2,48000,-16,experiment,SSHSS,1,odd,83958,252948,NA,328303,329512,324304,3911,322134,NA,329404,3921,229967,NA,329512,330177,329396,Flanker Task,111,66607,123,yes,1024
incongruent,90.32258065,90.32258065,540.2258065,540.2258065,black,legacy,legacy,legacy,0,uniform,1,undefined,1,h,0,0,0,123,123,123,0,123,0,123,0,0,0,123,123,123,Sun Sep  9 20:22:07 2018,600,The main experiment item,yes,FlankerTask.osexp,/Users/hannahrae97/Desktop,no,mono,no,18,no,white,no,yes,768,legacy,43,79,/Users/hannahrae97/Desktop/CTsubject-1.csv,legacy,Kafkaesque Koffka,3.2.5,0,h,NA,h,s,NA,h,381,NA,80026,22979,NA,381,2,legacy,1024,2,48000,-16,experiment,SSHSS,1,odd,83958,252948,NA,330697,331907,324304,3911,330189,NA,331799,3921,229967,NA,331907,332290,331789,Flanker Task,112,66988,124,yes,1024
incongruent,89.6,89.6,538.656,538.656,black,legacy,legacy,legacy,0,uniform,0,undefined,0,s,0,0,0,124,124,124,0,124,0,124,0,0,0,124,124,124,Sun Sep  9 20:22:07 2018,600,The main experiment item,yes,FlankerTask.osexp,/Users/hannahrae97/Desktop,no,mono,no,18,no,white,no,yes,768,legacy,44,79,/Users/hannahrae97/Desktop/CTsubject-1.csv,legacy,Kafkaesque Koffka,3.2.5,0,h,NA,h,s,NA,h,344,NA,80026,22979,NA,344,2,legacy,1024,2,48000,-16,experiment,HHSHH,1,odd,83958,252948,NA,332302,333520,324304,3911,330189,NA,333407,3921,229967,NA,333520,333866,333399,Flanker Task,112,67332,125,yes,1024
Congruent,88.88888889,88.88888889,537.3571429,537.3571429,black,legacy,legacy,legacy,0,uniform,0,undefined,0,s,0,0,0,125,125,125,0,125,0,125,0,0,0,125,125,125,Sun Sep  9 20:22:07 2018,600,The main experiment item,yes,FlankerTask.osexp,/Users/hannahrae97/Desktop,no,mono,no,18,no,white,no,yes,768,legacy,45,79,/Users/hannahrae97/Desktop/CTsubject-1.csv,legacy,Kafkaesque Koffka,3.2.5,0,h,NA,h,s,NA,h,375,NA,80026,22979,NA,375,2,legacy,1024,2,48000,-16,experiment,SSSSS,1,odd,83958,252948,NA,334388,335597,333879,3911,330189,NA,335487,3921,229967,NA,335597,335974,335479,Flanker Task,112,67707,126,yes,1024
congruent,88.97637795,88.97637795,536.7874016,536.7874016,black,legacy,legacy,legacy,0,uniform,1,undefined,1,h,0,0,0,126,126,126,0,126,0,126,0,0,0,126,126,126,Sun Sep  9 20:22:07 2018,600,The main experiment item,yes,FlankerTask.osexp,/Users/hannahrae97/Desktop,no,mono,no,18,no,white,no,yes,768,legacy,46,79,/Users/hannahrae97/Desktop/CTsubject-1.csv,legacy,Kafkaesque Koffka,3.2.5,0,h,NA,h,s,NA,h,465,NA,80026,22979,NA,465,2,legacy,1024,2,48000,-16,experiment,HHHHH,1,odd,83958,252948,NA,336495,337704,335985,3911,330189,NA,337594,3921,229967,NA,337705,338172,337586,Flanker Task,113,68172,127,yes,1024
congruent,89.0625,89.0625,536.8671875,536.8671875,black,legacy,legacy,legacy,0,uniform,1,undefined,1,h,0,0,0,127,127,127,0,127,0,127,0,0,0,127,127,127,Sun Sep  9 20:22:07 2018,600,The main experiment item,yes,FlankerTask.osexp,/Users/hannahrae97/Desktop,no,mono,no,18,no,white,no,yes,768,legacy,47,79,/Users/hannahrae97/Desktop/CTsubject-1.csv,legacy,Kafkaesque Koffka,3.2.5,0,h,NA,h,s,NA,h,547,NA,80026,22979,NA,547,2,legacy,1024,2,48000,-16,experiment,HHHHH,1,odd,83958,252948,NA,338183,339396,335985,3911,330189,NA,339287,3921,229967,NA,339396,339945,339278,Flanker Task,114,68719,128,yes,1024
incongruent,88.37209302,88.37209302,536.5503876,536.5503876,black,legacy,legacy,legacy,0,uniform,0,undefined,0,h,0,0,0,128,128,128,0,128,0,128,0,0,0,128,128,128,Sun Sep  9 20:22:07 2018,600,The main experiment item,yes,FlankerTask.osexp,/Users/hannahrae97/Desktop,no,mono,no,18,no,white,no,yes,768,legacy,48,79,/Users/hannahrae97/Desktop/CTsubject-1.csv,legacy,Kafkaesque Koffka,3.2.5,0,s,NA,h,s,NA,s,496,NA,80026,22979,NA,496,2,legacy,1024,2,48000,-16,experiment,SSHSS,1,odd,83958,252948,NA,339960,341169,335985,3911,330189,NA,341060,3921,229967,NA,341169,341667,341052,Flanker Task,114,69215,129,yes,1024
congruent,88.46153846,88.46153846,535.8538462,535.8538462,black,legacy,legacy,legacy,0,uniform,1,undefined,1,h,0,0,0,129,129,129,0,129,0,129,0,0,0,129,129,129,Sun Sep  9 20:22:07 2018,600,The main experiment item,yes,FlankerTask.osexp,/Users/hannahrae97/Desktop,no,mono,no,18,no,white,no,yes,768,legacy,49,79,/Users/hannahrae97/Desktop/CTsubject-1.csv,legacy,Kafkaesque Koffka,3.2.5,0,h,NA,h,s,NA,h,446,NA,80026,22979,NA,446,2,legacy,1024,2,48000,-16,experiment,HHHHH,1,odd,83958,252948,NA,342188,343395,341680,3911,330189,NA,343287,3921,229967,NA,343395,343843,343278,Flanker Task,115,69661,130,yes,1024
incongruent,88.54961832,88.54961832,536.0992366,536.0992366,black,legacy,legacy,legacy,0,uniform,1,undefined,1,s,0,0,0,130,130,130,0,130,0,130,0,0,0,130,130,130,Sun Sep  9 20:22:07 2018,600,The main experiment item,yes,FlankerTask.osexp,/Users/hannahrae97/Desktop,no,mono,no,18,no,white,no,yes,768,legacy,50,79,/Users/hannahrae97/Desktop/CTsubject-1.csv,legacy,Kafkaesque Koffka,3.2.5,0,s,NA,h,s,NA,s,568,NA,80026,22979,NA,568,2,legacy,1024,2,48000,-16,experiment,HHSHH,1,odd,83958,252948,NA,343855,345063,341680,3911,330189,NA,344953,3921,229967,NA,345063,345633,344945,Flanker Task,116,70229,131,yes,1024
Congruent,88.63636364,88.63636364,535.3939394,535.3939394,black,legacy,legacy,legacy,0,uniform,1,undefined,1,s,0,0,0,131,131,131,0,131,0,131,0,0,0,131,131,131,Sun Sep  9 20:22:07 2018,600,The main experiment item,yes,FlankerTask.osexp,/Users/hannahrae97/Desktop,no,mono,no,18,no,white,no,yes,768,legacy,51,79,/Users/hannahrae97/Desktop/CTsubject-1.csv,legacy,Kafkaesque Koffka,3.2.5,0,s,NA,h,s,NA,s,443,NA,80026,22979,NA,443,2,legacy,1024,2,48000,-16,experiment,SSSSS,1,odd,83958,252948,NA,345644,346855,341680,3911,330189,NA,346747,3921,229967,NA,346856,347301,346739,Flanker Task,117,70672,132,yes,1024
incongruent,88.72180451,88.72180451,534.8045113,534.8045113,black,legacy,legacy,legacy,0,uniform,1,undefined,1,s,0,0,0,132,132,132,0,132,0,132,0,0,0,132,132,132,Sun Sep  9 20:22:07 2018,600,The main experiment item,yes,FlankerTask.osexp,/Users/hannahrae97/Desktop,no,mono,no,18,no,white,no,yes,768,legacy,52,79,/Users/hannahrae97/Desktop/CTsubject-1.csv,legacy,Kafkaesque Koffka,3.2.5,0,s,NA,h,s,NA,s,457,NA,80026,22979,NA,457,2,legacy,1024,2,48000,-16,experiment,HHSHH,1,odd,83958,252948,NA,347314,348523,341680,3911,330189,NA,348412,3921,229967,NA,348523,348982,348404,Flanker Task,118,71129,133,yes,1024
incongruent,88.80597015,88.80597015,534.4850746,534.4850746,black,legacy,legacy,legacy,0,uniform,1,undefined,1,h,0,0,0,133,133,133,0,133,0,133,0,0,0,133,133,133,Sun Sep  9 20:22:07 2018,600,The main experiment item,yes,FlankerTask.osexp,/Users/hannahrae97/Desktop,no,mono,no,18,no,white,no,yes,768,legacy,53,79,/Users/hannahrae97/Desktop/CTsubject-1.csv,legacy,Kafkaesque Koffka,3.2.5,0,h,NA,h,s,NA,h,492,NA,80026,22979,NA,492,2,legacy,1024,2,48000,-16,experiment,SSHSS,1,odd,83958,252948,NA,348994,350213,341680,3911,330189,NA,350102,3921,229967,NA,350214,350708,350094,Flanker Task,119,71621,134,yes,1024
incongruent,88.88888889,88.88888889,534.5481481,534.5481481,black,legacy,legacy,legacy,0,uniform,1,undefined,1,s,0,0,0,134,134,134,0,134,0,134,0,0,0,134,134,134,Sun Sep  9 20:22:07 2018,600,The main experiment item,yes,FlankerTask.osexp,/Users/hannahrae97/Desktop,no,mono,no,18,no,white,no,yes,768,legacy,54,79,/Users/hannahrae97/Desktop/CTsubject-1.csv,legacy,Kafkaesque Koffka,3.2.5,0,s,NA,h,s,NA,s,543,NA,80026,22979,NA,543,2,legacy,1024,2,48000,-16,experiment,HHSHH,1,odd,83958,252948,NA,350720,351929,341680,3911,330189,NA,351821,3921,229967,NA,351929,352474,351812,Flanker Task,120,72164,135,yes,1024
Congruent,88.97058824,88.97058824,534.8970588,534.8970588,black,legacy,legacy,legacy,0,uniform,1,undefined,1,s,0,0,0,135,135,135,0,135,0,135,0,0,0,135,135,135,Sun Sep  9 20:22:07 2018,600,The main experiment item,yes,FlankerTask.osexp,/Users/hannahrae97/Desktop,no,mono,no,18,no,white,no,yes,768,legacy,55,79,/Users/hannahrae97/Desktop/CTsubject-1.csv,legacy,Kafkaesque Koffka,3.2.5,0,s,NA,h,s,NA,s,582,NA,80026,22979,NA,582,2,legacy,1024,2,48000,-16,experiment,SSSSS,1,odd,83958,252948,NA,352486,353697,341680,3911,330189,NA,353585,3921,229967,NA,353697,354281,353577,Flanker Task,121,72746,136,yes,1024
congruent,89.05109489,89.05109489,534.2773723,534.2773723,black,legacy,legacy,legacy,0,uniform,1,undefined,1,h,0,0,0,136,136,136,0,136,0,136,0,0,0,136,136,136,Sun Sep  9 20:22:07 2018,600,The main experiment item,yes,FlankerTask.osexp,/Users/hannahrae97/Desktop,no,mono,no,18,no,white,no,yes,768,legacy,56,79,/Users/hannahrae97/Desktop/CTsubject-1.csv,legacy,Kafkaesque Koffka,3.2.5,0,h,NA,h,s,NA,h,450,NA,80026,22979,NA,450,2,legacy,1024,2,48000,-16,experiment,HHHHH,1,odd,83958,252948,NA,354294,355500,341680,3911,330189,NA,355392,3921,229967,NA,355500,355952,355384,Flanker Task,122,73196,137,yes,1024
incongruent,89.13043478,89.13043478,535.1376812,535.1376812,black,legacy,legacy,legacy,0,uniform,1,undefined,1,s,0,0,0,137,137,137,0,137,0,137,0,0,0,137,137,137,Sun Sep  9 20:22:07 2018,600,The main experiment item,yes,FlankerTask.osexp,/Users/hannahrae97/Desktop,no,mono,no,18,no,white,no,yes,768,legacy,57,79,/Users/hannahrae97/Desktop/CTsubject-1.csv,legacy,Kafkaesque Koffka,3.2.5,0,s,NA,h,s,NA,s,653,NA,80026,22979,NA,653,2,legacy,1024,2,48000,-16,experiment,HHSHH,1,odd,83958,252948,NA,355964,357170,341680,3911,330189,NA,357062,3921,229967,NA,357170,357825,357054,Flanker Task,123,73849,138,yes,1024
incongruent,88.48920863,88.48920863,534.5971223,534.5971223,black,legacy,legacy,legacy,0,uniform,0,undefined,0,h,0,0,0,138,138,138,0,138,0,138,0,0,0,138,138,138,Sun Sep  9 20:22:07 2018,600,The main experiment item,yes,FlankerTask.osexp,/Users/hannahrae97/Desktop,no,mono,no,18,no,white,no,yes,768,legacy,58,79,/Users/hannahrae97/Desktop/CTsubject-1.csv,legacy,Kafkaesque Koffka,3.2.5,0,s,NA,h,s,NA,s,460,NA,80026,22979,NA,460,2,legacy,1024,2,48000,-16,experiment,SSHSS,1,odd,83958,252948,NA,358347,359553,341680,3911,357837,NA,359445,3921,229967,NA,359553,360015,359437,Flanker Task,123,74309,139,yes,1024
congruent,88.57142857,88.57142857,533.7642857,533.7642857,black,legacy,legacy,legacy,0,uniform,1,undefined,1,h,0,0,0,139,139,139,0,139,0,139,0,0,0,139,139,139,Sun Sep  9 20:22:07 2018,600,The main experiment item,yes,FlankerTask.osexp,/Users/hannahrae97/Desktop,no,mono,no,18,no,white,no,yes,768,legacy,59,79,/Users/hannahrae97/Desktop/CTsubject-1.csv,legacy,Kafkaesque Koffka,3.2.5,0,h,NA,h,s,NA,h,418,NA,80026,22979,NA,418,2,legacy,1024,2,48000,-16,experiment,HHHHH,1,odd,83958,252948,NA,360539,361744,360027,3911,357837,NA,361636,3921,229967,NA,361745,362165,361628,Flanker Task,124,74727,140,yes,1024
congruent,88.65248227,88.65248227,532.6028369,532.6028369,black,legacy,legacy,legacy,0,uniform,1,undefined,1,h,0,0,0,140,140,140,0,140,0,140,0,0,0,140,140,140,Sun Sep  9 20:22:07 2018,600,The main experiment item,yes,FlankerTask.osexp,/Users/hannahrae97/Desktop,no,mono,no,18,no,white,no,yes,768,legacy,60,79,/Users/hannahrae97/Desktop/CTsubject-1.csv,legacy,Kafkaesque Koffka,3.2.5,0,h,NA,h,s,NA,h,370,NA,80026,22979,NA,370,2,legacy,1024,2,48000,-16,experiment,HHHHH,1,odd,83958,252948,NA,362177,363387,360027,3911,357837,NA,363276,3921,229967,NA,363387,363760,363268,Flanker Task,125,75097,141,yes,1024
congruent,88.73239437,88.73239437,531.5140845,531.5140845,black,legacy,legacy,legacy,0,uniform,1,undefined,1,h,0,0,0,141,141,141,0,141,0,141,0,0,0,141,141,141,Sun Sep  9 20:22:07 2018,600,The main experiment item,yes,FlankerTask.osexp,/Users/hannahrae97/Desktop,no,mono,no,18,no,white,no,yes,768,legacy,61,79,/Users/hannahrae97/Desktop/CTsubject-1.csv,legacy,Kafkaesque Koffka,3.2.5,0,h,NA,h,s,NA,h,378,NA,80026,22979,NA,378,2,legacy,1024,2,48000,-16,experiment,HHHHH,1,odd,83958,252948,NA,363772,364981,360027,3911,357837,NA,364872,3921,229967,NA,364981,365361,364864,Flanker Task,126,75475,142,yes,1024
Congruent,88.81118881,88.81118881,530.986014,530.986014,black,legacy,legacy,legacy,0,uniform,1,undefined,1,s,0,0,0,142,142,142,0,142,0,142,0,0,0,142,142,142,Sun Sep  9 20:22:07 2018,600,The main experiment item,yes,FlankerTask.osexp,/Users/hannahrae97/Desktop,no,mono,no,18,no,white,no,yes,768,legacy,62,79,/Users/hannahrae97/Desktop/CTsubject-1.csv,legacy,Kafkaesque Koffka,3.2.5,0,s,NA,h,s,NA,s,456,NA,80026,22979,NA,456,2,legacy,1024,2,48000,-16,experiment,SSSSS,1,odd,83958,252948,NA,365374,366584,360027,3911,357837,NA,366476,3921,229967,NA,366584,367042,366467,Flanker Task,127,75931,143,yes,1024
incongruent,88.19444444,88.19444444,530.3055556,530.3055556,black,legacy,legacy,legacy,0,uniform,0,undefined,0,h,0,0,0,143,143,143,0,143,0,143,0,0,0,143,143,143,Sun Sep  9 20:22:07 2018,600,The main experiment item,yes,FlankerTask.osexp,/Users/hannahrae97/Desktop,no,mono,no,18,no,white,no,yes,768,legacy,63,79,/Users/hannahrae97/Desktop/CTsubject-1.csv,legacy,Kafkaesque Koffka,3.2.5,0,s,NA,h,s,NA,s,433,NA,80026,22979,NA,433,2,legacy,1024,2,48000,-16,experiment,SSHSS,1,odd,83958,252948,NA,367055,368263,360027,3911,357837,NA,368155,3921,229967,NA,368263,368698,368146,Flanker Task,127,76364,144,yes,1024
Congruent,87.5862069,87.5862069,529.1655172,529.1655172,black,legacy,legacy,legacy,0,uniform,0,undefined,0,s,0,0,0,144,144,144,0,144,0,144,0,0,0,144,144,144,Sun Sep  9 20:22:07 2018,600,The main experiment item,yes,FlankerTask.osexp,/Users/hannahrae97/Desktop,no,mono,no,18,no,white,no,yes,768,legacy,64,79,/Users/hannahrae97/Desktop/CTsubject-1.csv,legacy,Kafkaesque Koffka,3.2.5,0,h,NA,h,s,NA,h,365,NA,80026,22979,NA,365,2,legacy,1024,2,48000,-16,experiment,SSSSS,1,odd,83958,252948,NA,369222,370430,368709,3911,357837,NA,370322,3921,229967,NA,370430,370797,370314,Flanker Task,127,76729,145,yes,1024
incongruent,87.67123288,87.67123288,528.260274,528.260274,black,legacy,legacy,legacy,0,uniform,1,undefined,1,h,0,0,0,145,145,145,0,145,0,145,0,0,0,145,145,145,Sun Sep  9 20:22:07 2018,600,The main experiment item,yes,FlankerTask.osexp,/Users/hannahrae97/Desktop,no,mono,no,18,no,white,no,yes,768,legacy,65,79,/Users/hannahrae97/Desktop/CTsubject-1.csv,legacy,Kafkaesque Koffka,3.2.5,0,h,NA,h,s,NA,h,397,NA,80026,22979,NA,397,2,legacy,1024,2,48000,-16,experiment,SSHSS,1,odd,83958,252948,NA,371318,372530,370810,3911,357837,NA,372416,3921,229967,NA,372530,372929,372408,Flanker Task,128,77126,146,yes,1024
incongruent,87.75510204,87.75510204,527.9387755,527.9387755,black,legacy,legacy,legacy,0,uniform,1,undefined,1,h,0,0,0,146,146,146,0,146,0,146,0,0,0,146,146,146,Sun Sep  9 20:22:07 2018,600,The main experiment item,yes,FlankerTask.osexp,/Users/hannahrae97/Desktop,no,mono,no,18,no,white,no,yes,768,legacy,66,79,/Users/hannahrae97/Desktop/CTsubject-1.csv,legacy,Kafkaesque Koffka,3.2.5,0,h,NA,h,s,NA,h,481,NA,80026,22979,NA,481,2,legacy,1024,2,48000,-16,experiment,SSHSS,1,odd,83958,252948,NA,372941,374146,370810,3911,357837,NA,374036,3921,229967,NA,374146,374629,374028,Flanker Task,129,77607,147,yes,1024
Congruent,87.83783784,87.83783784,527.5405405,527.5405405,black,legacy,legacy,legacy,0,uniform,1,undefined,1,s,0,0,0,147,147,147,0,147,0,147,0,0,0,147,147,147,Sun Sep  9 20:22:07 2018,600,The main experiment item,yes,FlankerTask.osexp,/Users/hannahrae97/Desktop,no,mono,no,18,no,white,no,yes,768,legacy,67,79,/Users/hannahrae97/Desktop/CTsubject-1.csv,legacy,Kafkaesque Koffka,3.2.5,0,s,NA,h,s,NA,s,469,NA,80026,22979,NA,469,2,legacy,1024,2,48000,-16,experiment,SSSSS,1,odd,83958,252948,NA,374642,375850,370810,3911,357837,NA,375739,3921,229967,NA,375850,376321,375730,Flanker Task,130,78076,148,yes,1024
congruent,87.91946309,87.91946309,526.885906,526.885906,black,legacy,legacy,legacy,0,uniform,1,undefined,1,h,0,0,0,148,148,148,0,148,0,148,0,0,0,148,148,148,Sun Sep  9 20:22:07 2018,600,The main experiment item,yes,FlankerTask.osexp,/Users/hannahrae97/Desktop,no,mono,no,18,no,white,no,yes,768,legacy,68,79,/Users/hannahrae97/Desktop/CTsubject-1.csv,legacy,Kafkaesque Koffka,3.2.5,0,h,NA,h,s,NA,h,430,NA,80026,22979,NA,430,2,legacy,1024,2,48000,-16,experiment,HHHHH,1,odd,83958,252948,NA,376333,377541,370810,3911,357837,NA,377433,3921,229967,NA,377541,377973,377425,Flanker Task,131,78506,149,yes,1024
congruent,88,88,526.38,526.38,black,legacy,legacy,legacy,0,uniform,1,undefined,1,h,0,0,0,149,149,149,0,149,0,149,0,0,0,149,149,149,Sun Sep  9 20:22:07 2018,600,The main experiment item,yes,FlankerTask.osexp,/Users/hannahrae97/Desktop,no,mono,no,18,no,white,no,yes,768,legacy,69,79,/Users/hannahrae97/Desktop/CTsubject-1.csv,legacy,Kafkaesque Koffka,3.2.5,0,h,NA,h,s,NA,h,451,NA,80026,22979,NA,451,2,legacy,1024,2,48000,-16,experiment,HHHHH,1,odd,83958,252948,NA,377985,379198,370810,3911,357837,NA,379086,3921,229967,NA,379198,379652,379078,Flanker Task,132,78957,150,yes,1024
Congruent,88.0794702,88.0794702,525.9470199,525.9470199,black,legacy,legacy,legacy,0,uniform,1,undefined,1,s,0,0,0,150,150,150,0,150,0,150,0,0,0,150,150,150,Sun Sep  9 20:22:07 2018,600,The main experiment item,yes,FlankerTask.osexp,/Users/hannahrae97/Desktop,no,mono,no,18,no,white,no,yes,768,legacy,70,79,/Users/hannahrae97/Desktop/CTsubject-1.csv,legacy,Kafkaesque Koffka,3.2.5,0,s,NA,h,s,NA,s,461,NA,80026,22979,NA,461,2,legacy,1024,2,48000,-16,experiment,SSSSS,1,odd,83958,252948,NA,379664,380871,370810,3911,357837,NA,380759,3921,229967,NA,380871,381335,380751,Flanker Task,133,79418,151,yes,1024
Congruent,88.15789474,88.15789474,525.2631579,525.2631579,black,legacy,legacy,legacy,0,uniform,1,undefined,1,s,0,0,0,151,151,151,0,151,0,151,0,0,0,151,151,151,Sun Sep  9 20:22:07 2018,600,The main experiment item,yes,FlankerTask.osexp,/Users/hannahrae97/Desktop,no,mono,no,18,no,white,no,yes,768,legacy,71,79,/Users/hannahrae97/Desktop/CTsubject-1.csv,legacy,Kafkaesque Koffka,3.2.5,0,s,NA,h,s,NA,s,422,NA,80026,22979,NA,422,2,legacy,1024,2,48000,-16,experiment,SSSSS,1,odd,83958,252948,NA,381348,382559,370810,3911,357837,NA,382450,3921,229967,NA,382559,382983,382442,Flanker Task,134,79840,152,yes,1024
congruent,88.23529412,88.23529412,524.5490196,524.5490196,black,legacy,legacy,legacy,0,uniform,1,undefined,1,h,0,0,0,152,152,152,0,152,0,152,0,0,0,152,152,152,Sun Sep  9 20:22:07 2018,600,The main experiment item,yes,FlankerTask.osexp,/Users/hannahrae97/Desktop,no,mono,no,18,no,white,no,yes,768,legacy,72,79,/Users/hannahrae97/Desktop/CTsubject-1.csv,legacy,Kafkaesque Koffka,3.2.5,0,h,NA,h,s,NA,h,416,NA,80026,22979,NA,416,2,legacy,1024,2,48000,-16,experiment,HHHHH,1,odd,83958,252948,NA,382995,384198,370810,3911,357837,NA,384091,3921,229967,NA,384199,384617,384082,Flanker Task,135,80256,153,yes,1024
congruent,87.66233766,87.66233766,523.5649351,523.5649351,black,legacy,legacy,legacy,0,uniform,0,undefined,0,h,0,0,0,153,153,153,0,153,0,153,0,0,0,153,153,153,Sun Sep  9 20:22:07 2018,600,The main experiment item,yes,FlankerTask.osexp,/Users/hannahrae97/Desktop,no,mono,no,18,no,white,no,yes,768,legacy,73,79,/Users/hannahrae97/Desktop/CTsubject-1.csv,legacy,Kafkaesque Koffka,3.2.5,0,s,NA,h,s,NA,s,373,NA,80026,22979,NA,373,2,legacy,1024,2,48000,-16,experiment,HHHHH,1,odd,83958,252948,NA,384629,385840,370810,3911,357837,NA,385729,3921,229967,NA,385840,386215,385721,Flanker Task,135,80629,154,yes,1024
incongruent,87.09677419,87.09677419,522.9870968,522.9870968,black,legacy,legacy,legacy,0,uniform,0,undefined,0,s,0,0,0,154,154,154,0,154,0,154,0,0,0,154,154,154,Sun Sep  9 20:22:07 2018,600,The main experiment item,yes,FlankerTask.osexp,/Users/hannahrae97/Desktop,no,mono,no,18,no,white,no,yes,768,legacy,74,79,/Users/hannahrae97/Desktop/CTsubject-1.csv,legacy,Kafkaesque Koffka,3.2.5,0,h,NA,h,s,NA,h,434,NA,80026,22979,NA,434,2,legacy,1024,2,48000,-16,experiment,HHSHH,1,odd,83958,252948,NA,386736,387945,386228,3911,357837,NA,387837,3921,229967,NA,387945,388381,387827,Flanker Task,135,81063,155,yes,1024
incongruent,86.53846154,86.53846154,522.2820513,522.2820513,black,legacy,legacy,legacy,0,uniform,0,undefined,0,s,0,0,0,155,155,155,0,155,0,155,0,0,0,155,155,155,Sun Sep  9 20:22:07 2018,600,The main experiment item,yes,FlankerTask.osexp,/Users/hannahrae97/Desktop,no,mono,no,18,no,white,no,yes,768,legacy,75,79,/Users/hannahrae97/Desktop/CTsubject-1.csv,legacy,Kafkaesque Koffka,3.2.5,0,h,NA,h,s,NA,h,413,NA,80026,22979,NA,413,2,legacy,1024,2,48000,-16,experiment,HHSHH,1,odd,83958,252948,NA,388904,390115,388396,3911,357837,NA,390000,3921,229967,NA,390115,390530,389993,Flanker Task,135,81476,156,yes,1024
incongruent,86.62420382,86.62420382,523.5796178,523.5796178,black,legacy,legacy,legacy,0,uniform,1,undefined,1,s,0,0,0,156,156,156,0,156,0,156,0,0,0,156,156,156,Sun Sep  9 20:22:07 2018,600,The main experiment item,yes,FlankerTask.osexp,/Users/hannahrae97/Desktop,no,mono,no,18,no,white,no,yes,768,legacy,76,79,/Users/hannahrae97/Desktop/CTsubject-1.csv,legacy,Kafkaesque Koffka,3.2.5,0,s,NA,h,s,NA,s,726,NA,80026,22979,NA,726,2,legacy,1024,2,48000,-16,experiment,HHSHH,1,odd,83958,252948,NA,391053,392265,390544,3911,357837,NA,392155,3921,229967,NA,392265,392993,392147,Flanker Task,136,82202,157,yes,1024
Congruent,86.70886076,86.70886076,523.3481013,523.3481013,black,legacy,legacy,legacy,0,uniform,1,undefined,1,s,0,0,0,157,157,157,0,157,0,157,0,0,0,157,157,157,Sun Sep  9 20:22:07 2018,600,The main experiment item,yes,FlankerTask.osexp,/Users/hannahrae97/Desktop,no,mono,no,18,no,white,no,yes,768,legacy,77,79,/Users/hannahrae97/Desktop/CTsubject-1.csv,legacy,Kafkaesque Koffka,3.2.5,0,s,NA,h,s,NA,s,487,NA,80026,22979,NA,487,2,legacy,1024,2,48000,-16,experiment,SSSSS,1,odd,83958,252948,NA,393514,394721,390544,3911,393004,NA,394613,3921,229967,NA,394721,395210,394604,Flanker Task,137,82689,158,yes,1024
incongruent,86.16352201,86.16352201,522.3647799,522.3647799,black,legacy,legacy,legacy,0,uniform,0,undefined,0,h,0,0,0,158,158,158,0,158,0,158,0,0,0,158,158,158,Sun Sep  9 20:22:07 2018,600,The main experiment item,yes,FlankerTask.osexp,/Users/hannahrae97/Desktop,no,mono,no,18,no,white,no,yes,768,legacy,78,79,/Users/hannahrae97/Desktop/CTsubject-1.csv,legacy,Kafkaesque Koffka,3.2.5,0,s,NA,h,s,NA,s,367,NA,80026,22979,NA,367,2,legacy,1024,2,48000,-16,experiment,SSHSS,1,odd,83958,252948,NA,395221,396430,390544,3911,393004,NA,396322,3921,229967,NA,396430,396799,396313,Flanker Task,137,83056,159,yes,1024
Congruent,86.25,86.25,521.83125,521.83125,black,legacy,legacy,legacy,0,uniform,1,undefined,1,s,0,0,0,159,159,159,0,159,0,159,0,0,0,159,159,159,Sun Sep  9 20:22:07 2018,600,The main experiment item,yes,FlankerTask.osexp,/Users/hannahrae97/Desktop,no,mono,no,18,no,white,no,yes,768,legacy,79,79,/Users/hannahrae97/Desktop/CTsubject-1.csv,legacy,Kafkaesque Koffka,3.2.5,0,s,NA,h,s,NA,s,437,NA,80026,22979,NA,437,2,legacy,1024,2,48000,-16,experiment,SSSSS,1,odd,83958,252948,NA,397320,398525,396812,3911,393004,NA,398417,3921,229967,NA,398525,398964,398408,Flanker Task,138,83493,160,yes,1024
incongruent,86.33540373,86.33540373,521.2484472,521.2484472,black,legacy,legacy,legacy,0,uniform,1,undefined,1,h,0,0,0,160,160,160,0,160,0,160,0,0,0,160,160,160,Sun Sep  9 20:22:07 2018,300,The main experiment item,yes,FlankerTask.osexp,/Users/hannahrae97/Desktop,no,mono,no,18,no,white,no,yes,768,legacy,0,79,/Users/hannahrae97/Desktop/CTsubject-1.csv,legacy,Kafkaesque Koffka,3.2.5,0,h,NA,h,s,h,h,428,NA,80026,22979,24563,428,2,legacy,1024,2,48000,-16,experiment,SSHSS,1,odd,83958,252948,424576,398975,424775,396812,3911,393004,NA,424664,3921,229967,400010,424775,425205,424655,Flanker Task,139,83921,161,yes,1024
incongruent,85.80246914,85.80246914,519.7839506,519.7839506,black,legacy,legacy,legacy,0,uniform,0,undefined,0,h,0,0,0,161,161,161,0,161,0,161,0,0,0,161,161,161,Sun Sep  9 20:22:07 2018,300,The main experiment item,yes,FlankerTask.osexp,/Users/hannahrae97/Desktop,no,mono,no,18,no,white,no,yes,768,legacy,1,79,/Users/hannahrae97/Desktop/CTsubject-1.csv,legacy,Kafkaesque Koffka,3.2.5,0,s,NA,h,s,h,s,284,NA,80026,22979,24563,284,2,legacy,1024,2,48000,-16,experiment,SSHSS,1,odd,83958,252948,424576,425726,426936,396812,3911,425218,NA,426825,3921,229967,400010,426936,427222,426817,Flanker Task,139,84205,162,yes,1024
congruent,85.88957055,85.88957055,518.0429448,518.0429448,black,legacy,legacy,legacy,0,uniform,1,undefined,1,h,0,0,0,162,162,162,0,162,0,162,0,0,0,162,162,162,Sun Sep  9 20:22:07 2018,300,The main experiment item,yes,FlankerTask.osexp,/Users/hannahrae97/Desktop,no,mono,no,18,no,white,no,yes,768,legacy,2,79,/Users/hannahrae97/Desktop/CTsubject-1.csv,legacy,Kafkaesque Koffka,3.2.5,0,h,NA,h,s,h,h,236,NA,80026,22979,24563,236,2,legacy,1024,2,48000,-16,experiment,HHHHH,1,odd,83958,252948,424576,427744,428956,427233,3911,425218,NA,428848,3921,229967,400010,428957,429196,428840,Flanker Task,140,84441,163,yes,1024
congruent,85.97560976,85.97560976,516.4939024,516.4939024,black,legacy,legacy,legacy,0,uniform,1,undefined,1,h,0,0,0,163,163,163,0,163,0,163,0,0,0,163,163,163,Sun Sep  9 20:22:07 2018,300,The main experiment item,yes,FlankerTask.osexp,/Users/hannahrae97/Desktop,no,mono,no,18,no,white,no,yes,768,legacy,3,79,/Users/hannahrae97/Desktop/CTsubject-1.csv,legacy,Kafkaesque Koffka,3.2.5,0,h,NA,h,s,h,h,264,NA,80026,22979,24563,264,2,legacy,1024,2,48000,-16,experiment,HHHHH,1,odd,83958,252948,424576,429207,430413,427233,3911,425218,NA,430304,3921,229967,400010,430413,430679,430296,Flanker Task,141,84705,164,yes,1024
incongruent,85.45454545,85.45454545,514.8787879,514.8787879,black,legacy,legacy,legacy,0,uniform,0,undefined,0,s,0,0,0,164,164,164,0,164,0,164,0,0,0,164,164,164,Sun Sep  9 20:22:07 2018,300,The main experiment item,yes,FlankerTask.osexp,/Users/hannahrae97/Desktop,no,mono,no,18,no,white,no,yes,768,legacy,4,79,/Users/hannahrae97/Desktop/CTsubject-1.csv,legacy,Kafkaesque Koffka,3.2.5,0,h,NA,h,s,h,h,250,NA,80026,22979,24563,250,2,legacy,1024,2,48000,-16,experiment,HHSHH,1,odd,83958,252948,424576,430691,431904,427233,3911,425218,NA,431796,3921,229967,400010,431904,432156,431788,Flanker Task,141,84955,165,yes,1024
Congruent,84.93975904,84.93975904,513.4156627,513.4156627,black,legacy,legacy,legacy,0,uniform,0,undefined,0,s,0,0,0,165,165,165,0,165,0,165,0,0,0,165,165,165,Sun Sep  9 20:22:07 2018,300,The main experiment item,yes,FlankerTask.osexp,/Users/hannahrae97/Desktop,no,mono,no,18,no,white,no,yes,768,legacy,5,79,/Users/hannahrae97/Desktop/CTsubject-1.csv,legacy,Kafkaesque Koffka,3.2.5,0,h,NA,h,s,h,h,272,NA,80026,22979,24563,272,2,legacy,1024,2,48000,-16,experiment,SSSSS,1,odd,83958,252948,424576,432677,433888,432168,3911,425218,NA,433777,3921,229967,400010,433888,434162,433769,Flanker Task,141,85227,166,yes,1024
incongruent,85.02994012,85.02994012,512.9461078,512.9461078,black,legacy,legacy,legacy,0,uniform,1,undefined,1,h,0,0,0,166,166,166,0,166,0,166,0,0,0,166,166,166,Sun Sep  9 20:22:07 2018,300,The main experiment item,yes,FlankerTask.osexp,/Users/hannahrae97/Desktop,no,mono,no,18,no,white,no,yes,768,legacy,6,79,/Users/hannahrae97/Desktop/CTsubject-1.csv,legacy,Kafkaesque Koffka,3.2.5,0,h,NA,h,s,h,h,435,NA,80026,22979,24563,435,2,legacy,1024,2,48000,-16,experiment,SSHSS,1,odd,83958,252948,424576,434682,435892,434174,3911,425218,NA,435784,3921,229967,400010,435892,436330,435776,Flanker Task,142,85662,167,yes,1024
