"acc","accuracy","average_response_time","avg_rt","background","canvas_backend","clock_backend","color_backend","compensation","condition","coordinates","correct","correct_instructions1","correct_keyboard_response","correct_response","count_Block1","count_Block2","count_Block3","count_ISI","count_Stimulus","count_errorfeedback","count_experiment","count_faster","count_finish","count_fixation","count_instructions1","count_instructions2","count_instructions3","count_keyboard_response","count_logger","count_sequence","datetime","deadline","description","disable_garbage_collection","experiment_file","experiment_path","font_bold","font_family","font_italic","font_size","font_underline","foreground","form_clicks","fullscreen","height","keyboard_backend","live_row","live_row_Block1","logfile","mouse_backend","opensesame_codename","opensesame_version","repeat_cycle","response","response_finish","response_instructions1","response_instructions2","response_instructions3","response_keyboard_response","response_time","response_time_finish","response_time_instructions1","response_time_instructions2","response_time_instructions3","response_time_keyboard_response","round_decimals","sampler_backend","sound_buf_size","sound_channels","sound_freq","sound_sample_size","start","stimulus","subject_nr","subject_parity","time_Block1","time_Block2","time_Block3","time_ISI","time_Stimulus","time_errorfeedback","time_experiment","time_faster","time_finish","time_fixation","time_instructions1","time_instructions2","time_instructions3","time_keyboard_response","time_logger","time_sequence","title","total_correct","total_response_time","total_responses","uniform_coordinates","width"
"100","100","1410","1410","black","legacy","legacy","legacy","0","incongruent","uniform","1","undefined","1","s","0","0","0","0","0","0","0","0","0","0","0","0","0","0","0","0","Sat Sep  8 22:40:04 2018","1500","The main experiment item","yes","FlankerTaskAHC.osexp","/Users/abigailchristie/Desktop/Faulkenberry","no","mono","no","18","no","white","no","yes","768","legacy","0","0","/Users/abigailchristie/Desktop/Faulkenberry/AHC03.csv","legacy","Kafkaesque Koffka","3.2.5","0","s","NA","s","NA","NA","s","1410","NA","31506","NA","NA","1410","2","legacy","1024","2","48000","-16","experiment","HHSHH","3","odd","33938","NA","NA","NA","34142","NA","2410","NA","NA","34034","2422","NA","NA","34142","35554","34026","Flanker Task-AHC","1","1410","1","yes","1024"
"100","100","999.5","999.5","black","legacy","legacy","legacy","0","incongruent","uniform","1","undefined","1","h","0","0","0","1","1","1","0","1","0","1","0","0","0","1","1","1","Sat Sep  8 22:40:04 2018","1500","The main experiment item","yes","FlankerTaskAHC.osexp","/Users/abigailchristie/Desktop/Faulkenberry","no","mono","no","18","no","white","no","yes","768","legacy","1","1","/Users/abigailchristie/Desktop/Faulkenberry/AHC03.csv","legacy","Kafkaesque Koffka","3.2.5","0","h","NA","s","NA","NA","h","589","NA","31506","NA","NA","589","2","legacy","1024","2","48000","-16","experiment","SSHSS","3","odd","33938","NA","NA","35566","36771","NA","2410","NA","NA","36661","2422","NA","NA","36771","37361","36653","Flanker Task-AHC","2","1999","2","yes","1024"
"100","100","854","854","black","legacy","legacy","legacy","0","incongruent","uniform","1","undefined","1","h","0","0","0","2","2","2","0","2","0","2","0","0","0","2","2","2","Sat Sep  8 22:40:04 2018","1500","The main experiment item","yes","FlankerTaskAHC.osexp","/Users/abigailchristie/Desktop/Faulkenberry","no","mono","no","18","no","white","no","yes","768","legacy","2","2","/Users/abigailchristie/Desktop/Faulkenberry/AHC03.csv","legacy","Kafkaesque Koffka","3.2.5","0","h","NA","s","NA","NA","h","563","NA","31506","NA","NA","563","2","legacy","1024","2","48000","-16","experiment","SSHSS","3","odd","33938","NA","NA","37372","38572","NA","2410","NA","NA","38462","2422","NA","NA","38572","39137","38454","Flanker Task-AHC","3","2562","3","yes","1024"
"100","100","767","767","black","legacy","legacy","legacy","0","congruent","uniform","1","undefined","1","s","0","0","0","3","3","3","0","3","0","3","0","0","0","3","3","3","Sat Sep  8 22:40:04 2018","1500","The main experiment item","yes","FlankerTaskAHC.osexp","/Users/abigailchristie/Desktop/Faulkenberry","no","mono","no","18","no","white","no","yes","768","legacy","3","3","/Users/abigailchristie/Desktop/Faulkenberry/AHC03.csv","legacy","Kafkaesque Koffka","3.2.5","0","s","NA","s","NA","NA","s","506","NA","31506","NA","NA","506","2","legacy","1024","2","48000","-16","experiment","SSSSS","3","odd","33938","NA","NA","39150","40350","NA","2410","NA","NA","40241","2422","NA","NA","40350","40857","40233","Flanker Task-AHC","4","3068","4","yes","1024"
"100","100","696","696","black","legacy","legacy","legacy","0","congruent","uniform","1","undefined","1","s","0","0","0","4","4","4","0","4","0","4","0","0","0","4","4","4","Sat Sep  8 22:40:04 2018","1500","The main experiment item","yes","FlankerTaskAHC.osexp","/Users/abigailchristie/Desktop/Faulkenberry","no","mono","no","18","no","white","no","yes","768","legacy","4","4","/Users/abigailchristie/Desktop/Faulkenberry/AHC03.csv","legacy","Kafkaesque Koffka","3.2.5","0","s","NA","s","NA","NA","s","412","NA","31506","NA","NA","412","2","legacy","1024","2","48000","-16","experiment","SSSSS","3","odd","33938","NA","NA","40870","42068","NA","2410","NA","NA","41958","2422","NA","NA","42068","42481","41951","Flanker Task-AHC","5","3480","5","yes","1024"
"100","100","648.666666667","648.666666667","black","legacy","legacy","legacy","0","congruent","uniform","1","undefined","1","h","0","0","0","5","5","5","0","5","0","5","0","0","0","5","5","5","Sat Sep  8 22:40:04 2018","1500","The main experiment item","yes","FlankerTaskAHC.osexp","/Users/abigailchristie/Desktop/Faulkenberry","no","mono","no","18","no","white","no","yes","768","legacy","5","5","/Users/abigailchristie/Desktop/Faulkenberry/AHC03.csv","legacy","Kafkaesque Koffka","3.2.5","0","h","NA","s","NA","NA","h","412","NA","31506","NA","NA","412","2","legacy","1024","2","48000","-16","experiment","HHHHH","3","odd","33938","NA","NA","42493","43690","NA","2410","NA","NA","43582","2422","NA","NA","43691","44105","43575","Flanker Task-AHC","6","3892","6","yes","1024"
"85.7142857143","85.7142857143","633.142857143","633.142857143","black","legacy","legacy","legacy","0","incongruent","uniform","0","undefined","0","s","0","0","0","6","6","6","0","6","0","6","0","0","0","6","6","6","Sat Sep  8 22:40:04 2018","1500","The main experiment item","yes","FlankerTaskAHC.osexp","/Users/abigailchristie/Desktop/Faulkenberry","no","mono","no","18","no","white","no","yes","768","legacy","6","6","/Users/abigailchristie/Desktop/Faulkenberry/AHC03.csv","legacy","Kafkaesque Koffka","3.2.5","0","h","NA","s","NA","NA","h","540","NA","31506","NA","NA","540","2","legacy","1024","2","48000","-16","experiment","HHSHH","3","odd","33938","NA","NA","44116","45316","NA","2410","NA","NA","45207","2422","NA","NA","45316","45858","45199","Flanker Task-AHC","6","4432","7","yes","1024"
"87.5","87.5","614.125","614.125","black","legacy","legacy","legacy","0","incongruent","uniform","1","undefined","1","s","0","0","0","7","7","7","0","7","0","7","0","0","0","7","7","7","Sat Sep  8 22:40:04 2018","1500","The main experiment item","yes","FlankerTaskAHC.osexp","/Users/abigailchristie/Desktop/Faulkenberry","no","mono","no","18","no","white","no","yes","768","legacy","7","7","/Users/abigailchristie/Desktop/Faulkenberry/AHC03.csv","legacy","Kafkaesque Koffka","3.2.5","0","s","NA","s","NA","NA","s","481","NA","31506","NA","NA","481","2","legacy","1024","2","48000","-16","experiment","HHSHH","3","odd","33938","NA","NA","46379","47582","45871","2410","NA","NA","47473","2422","NA","NA","47582","48064","47466","Flanker Task-AHC","7","4913","8","yes","1024"
"88.8888888889","88.8888888889","601.333333333","601.333333333","black","legacy","legacy","legacy","0","incongruent","uniform","1","undefined","1","h","0","0","0","8","8","8","0","8","0","8","0","0","0","8","8","8","Sat Sep  8 22:40:04 2018","1500","The main experiment item","yes","FlankerTaskAHC.osexp","/Users/abigailchristie/Desktop/Faulkenberry","no","mono","no","18","no","white","no","yes","768","legacy","8","8","/Users/abigailchristie/Desktop/Faulkenberry/AHC03.csv","legacy","Kafkaesque Koffka","3.2.5","0","h","NA","s","NA","NA","h","499","NA","31506","NA","NA","499","2","legacy","1024","2","48000","-16","experiment","SSHSS","3","odd","33938","NA","NA","48076","49276","45871","2410","NA","NA","49167","2422","NA","NA","49276","49778","49160","Flanker Task-AHC","8","5412","9","yes","1024"
"90","90","593.6","593.6","black","legacy","legacy","legacy","0","incongruent","uniform","1","undefined","1","h","0","0","0","9","9","9","0","9","0","9","0","0","0","9","9","9","Sat Sep  8 22:40:04 2018","1500","The main experiment item","yes","FlankerTaskAHC.osexp","/Users/abigailchristie/Desktop/Faulkenberry","no","mono","no","18","no","white","no","yes","768","legacy","9","9","/Users/abigailchristie/Desktop/Faulkenberry/AHC03.csv","legacy","Kafkaesque Koffka","3.2.5","0","h","NA","s","NA","NA","h","524","NA","31506","NA","NA","524","2","legacy","1024","2","48000","-16","experiment","SSHSS","3","odd","33938","NA","NA","49790","50987","45871","2410","NA","NA","50879","2422","NA","NA","50987","51513","50871","Flanker Task-AHC","9","5936","10","yes","1024"
"90.9090909091","90.9090909091","579.090909091","579.090909091","black","legacy","legacy","legacy","0","incongruent","uniform","1","undefined","1","h","0","0","0","10","10","10","0","10","0","10","0","0","0","10","10","10","Sat Sep  8 22:40:04 2018","1500","The main experiment item","yes","FlankerTaskAHC.osexp","/Users/abigailchristie/Desktop/Faulkenberry","no","mono","no","18","no","white","no","yes","768","legacy","10","10","/Users/abigailchristie/Desktop/Faulkenberry/AHC03.csv","legacy","Kafkaesque Koffka","3.2.5","0","h","NA","s","NA","NA","h","434","NA","31506","NA","NA","434","2","legacy","1024","2","48000","-16","experiment","SSHSS","3","odd","33938","NA","NA","51524","52725","45871","2410","NA","NA","52616","2422","NA","NA","52725","53161","52605","Flanker Task-AHC","10","6370","11","yes","1024"
"91.6666666667","91.6666666667","576.166666667","576.166666667","black","legacy","legacy","legacy","0","congruent","uniform","1","undefined","1","h","0","0","0","11","11","11","0","11","0","11","0","0","0","11","11","11","Sat Sep  8 22:40:04 2018","1500","The main experiment item","yes","FlankerTaskAHC.osexp","/Users/abigailchristie/Desktop/Faulkenberry","no","mono","no","18","no","white","no","yes","768","legacy","11","11","/Users/abigailchristie/Desktop/Faulkenberry/AHC03.csv","legacy","Kafkaesque Koffka","3.2.5","0","h","NA","s","NA","NA","h","544","NA","31506","NA","NA","544","2","legacy","1024","2","48000","-16","experiment","HHHHH","3","odd","33938","NA","NA","53173","54374","45871","2410","NA","NA","54265","2422","NA","NA","54375","54921","54257","Flanker Task-AHC","11","6914","12","yes","1024"
"92.3076923077","92.3076923077","567.076923077","567.076923077","black","legacy","legacy","legacy","0","incongruent","uniform","1","undefined","1","s","0","0","0","12","12","12","0","12","0","12","0","0","0","12","12","12","Sat Sep  8 22:40:04 2018","1500","The main experiment item","yes","FlankerTaskAHC.osexp","/Users/abigailchristie/Desktop/Faulkenberry","no","mono","no","18","no","white","no","yes","768","legacy","12","12","/Users/abigailchristie/Desktop/Faulkenberry/AHC03.csv","legacy","Kafkaesque Koffka","3.2.5","0","s","NA","s","NA","NA","s","458","NA","31506","NA","NA","458","2","legacy","1024","2","48000","-16","experiment","HHSHH","3","odd","33938","NA","NA","54932","56133","45871","2410","NA","NA","56024","2422","NA","NA","56133","56593","56015","Flanker Task-AHC","12","7372","13","yes","1024"
"92.8571428571","92.8571428571","558.428571429","558.428571429","black","legacy","legacy","legacy","0","incongruent","uniform","1","undefined","1","h","0","0","0","13","13","13","0","13","0","13","0","0","0","13","13","13","Sat Sep  8 22:40:04 2018","1500","The main experiment item","yes","FlankerTaskAHC.osexp","/Users/abigailchristie/Desktop/Faulkenberry","no","mono","no","18","no","white","no","yes","768","legacy","13","13","/Users/abigailchristie/Desktop/Faulkenberry/AHC03.csv","legacy","Kafkaesque Koffka","3.2.5","0","h","NA","s","NA","NA","h","446","NA","31506","NA","NA","446","2","legacy","1024","2","48000","-16","experiment","SSHSS","3","odd","33938","NA","NA","56605","57801","45871","2410","NA","NA","57693","2422","NA","NA","57801","58249","57685","Flanker Task-AHC","13","7818","14","yes","1024"
"93.3333333333","93.3333333333","550.2","550.2","black","legacy","legacy","legacy","0","congruent","uniform","1","undefined","1","h","0","0","0","14","14","14","0","14","0","14","0","0","0","14","14","14","Sat Sep  8 22:40:04 2018","1500","The main experiment item","yes","FlankerTaskAHC.osexp","/Users/abigailchristie/Desktop/Faulkenberry","no","mono","no","18","no","white","no","yes","768","legacy","14","14","/Users/abigailchristie/Desktop/Faulkenberry/AHC03.csv","legacy","Kafkaesque Koffka","3.2.5","0","h","NA","s","NA","NA","h","435","NA","31506","NA","NA","435","2","legacy","1024","2","48000","-16","experiment","HHHHH","3","odd","33938","NA","NA","58261","59460","45871","2410","NA","NA","59351","2422","NA","NA","59460","59897","59343","Flanker Task-AHC","14","8253","15","yes","1024"
"93.75","93.75","545.0625","545.0625","black","legacy","legacy","legacy","0","incongruent","uniform","1","undefined","1","h","0","0","0","15","15","15","0","15","0","15","0","0","0","15","15","15","Sat Sep  8 22:40:04 2018","1500","The main experiment item","yes","FlankerTaskAHC.osexp","/Users/abigailchristie/Desktop/Faulkenberry","no","mono","no","18","no","white","no","yes","768","legacy","15","15","/Users/abigailchristie/Desktop/Faulkenberry/AHC03.csv","legacy","Kafkaesque Koffka","3.2.5","0","h","NA","s","NA","NA","h","468","NA","31506","NA","NA","468","2","legacy","1024","2","48000","-16","experiment","SSHSS","3","odd","33938","NA","NA","59909","61107","45871","2410","NA","NA","60998","2422","NA","NA","61107","61577","60991","Flanker Task-AHC","15","8721","16","yes","1024"
"88.2352941176","88.2352941176","538","538","black","legacy","legacy","legacy","0","incongruent","uniform","0","undefined","0","s","0","0","0","16","16","16","0","16","0","16","0","0","0","16","16","16","Sat Sep  8 22:40:04 2018","1500","The main experiment item","yes","FlankerTaskAHC.osexp","/Users/abigailchristie/Desktop/Faulkenberry","no","mono","no","18","no","white","no","yes","768","legacy","16","16","/Users/abigailchristie/Desktop/Faulkenberry/AHC03.csv","legacy","Kafkaesque Koffka","3.2.5","0","h","NA","s","NA","NA","h","425","NA","31506","NA","NA","425","2","legacy","1024","2","48000","-16","experiment","HHSHH","3","odd","33938","NA","NA","61591","62789","45871","2410","NA","NA","62680","2422","NA","NA","62790","63217","62672","Flanker Task-AHC","15","9146","17","yes","1024"
"88.8888888889","88.8888888889","536.555555556","536.555555556","black","legacy","legacy","legacy","0","incongruent","uniform","1","undefined","1","h","0","0","0","17","17","17","0","17","0","17","0","0","0","17","17","17","Sat Sep  8 22:40:04 2018","1500","The main experiment item","yes","FlankerTaskAHC.osexp","/Users/abigailchristie/Desktop/Faulkenberry","no","mono","no","18","no","white","no","yes","768","legacy","17","17","/Users/abigailchristie/Desktop/Faulkenberry/AHC03.csv","legacy","Kafkaesque Koffka","3.2.5","0","h","NA","s","NA","NA","h","512","NA","31506","NA","NA","512","2","legacy","1024","2","48000","-16","experiment","SSHSS","3","odd","33938","NA","NA","63736","64934","63228","2410","NA","NA","64824","2422","NA","NA","64935","65449","64816","Flanker Task-AHC","16","9658","18","yes","1024"
"89.4736842105","89.4736842105","534.947368421","534.947368421","black","legacy","legacy","legacy","0","incongruent","uniform","1","undefined","1","s","0","0","0","18","18","18","0","18","0","18","0","0","0","18","18","18","Sat Sep  8 22:40:04 2018","1500","The main experiment item","yes","FlankerTaskAHC.osexp","/Users/abigailchristie/Desktop/Faulkenberry","no","mono","no","18","no","white","no","yes","768","legacy","18","18","/Users/abigailchristie/Desktop/Faulkenberry/AHC03.csv","legacy","Kafkaesque Koffka","3.2.5","0","s","NA","s","NA","NA","s","506","NA","31506","NA","NA","506","2","legacy","1024","2","48000","-16","experiment","HHSHH","3","odd","33938","NA","NA","65461","66661","63228","2410","NA","NA","66552","2422","NA","NA","66661","67169","66543","Flanker Task-AHC","17","10164","19","yes","1024"
"90","90","527.55","527.55","black","legacy","legacy","legacy","0","congruent","uniform","1","undefined","1","h","0","0","0","19","19","19","0","19","0","19","0","0","0","19","19","19","Sat Sep  8 22:40:04 2018","1500","The main experiment item","yes","FlankerTaskAHC.osexp","/Users/abigailchristie/Desktop/Faulkenberry","no","mono","no","18","no","white","no","yes","768","legacy","19","19","/Users/abigailchristie/Desktop/Faulkenberry/AHC03.csv","legacy","Kafkaesque Koffka","3.2.5","0","h","NA","s","NA","NA","h","387","NA","31506","NA","NA","387","2","legacy","1024","2","48000","-16","experiment","HHHHH","3","odd","33938","NA","NA","67181","68379","63228","2410","NA","NA","68270","2422","NA","NA","68379","68768","68262","Flanker Task-AHC","18","10551","20","yes","1024"
"90.4761904762","90.4761904762","531.19047619","531.19047619","black","legacy","legacy","legacy","0","incongruent","uniform","1","undefined","1","h","0","0","0","20","20","20","0","20","0","20","0","0","0","20","20","20","Sat Sep  8 22:40:04 2018","1500","The main experiment item","yes","FlankerTaskAHC.osexp","/Users/abigailchristie/Desktop/Faulkenberry","no","mono","no","18","no","white","no","yes","768","legacy","20","20","/Users/abigailchristie/Desktop/Faulkenberry/AHC03.csv","legacy","Kafkaesque Koffka","3.2.5","0","h","NA","s","NA","NA","h","604","NA","31506","NA","NA","604","2","legacy","1024","2","48000","-16","experiment","SSHSS","3","odd","33938","NA","NA","68779","69978","63228","2410","NA","NA","69869","2422","NA","NA","69978","70585","69861","Flanker Task-AHC","19","11155","21","yes","1024"
"90.9090909091","90.9090909091","528.409090909","528.409090909","black","legacy","legacy","legacy","0","congruent","uniform","1","undefined","1","h","0","0","0","21","21","21","0","21","0","21","0","0","0","21","21","21","Sat Sep  8 22:40:04 2018","1500","The main experiment item","yes","FlankerTaskAHC.osexp","/Users/abigailchristie/Desktop/Faulkenberry","no","mono","no","18","no","white","no","yes","768","legacy","21","21","/Users/abigailchristie/Desktop/Faulkenberry/AHC03.csv","legacy","Kafkaesque Koffka","3.2.5","0","h","NA","s","NA","NA","h","470","NA","31506","NA","NA","470","2","legacy","1024","2","48000","-16","experiment","HHHHH","3","odd","33938","NA","NA","70596","71792","63228","2410","NA","NA","71684","2422","NA","NA","71792","72265","71677","Flanker Task-AHC","20","11625","22","yes","1024"
"91.3043478261","91.3043478261","527.304347826","527.304347826","black","legacy","legacy","legacy","0","incongruent","uniform","1","undefined","1","s","0","0","0","22","22","22","0","22","0","22","0","0","0","22","22","22","Sat Sep  8 22:40:04 2018","1500","The main experiment item","yes","FlankerTaskAHC.osexp","/Users/abigailchristie/Desktop/Faulkenberry","no","mono","no","18","no","white","no","yes","768","legacy","22","22","/Users/abigailchristie/Desktop/Faulkenberry/AHC03.csv","legacy","Kafkaesque Koffka","3.2.5","0","s","NA","s","NA","NA","s","503","NA","31506","NA","NA","503","2","legacy","1024","2","48000","-16","experiment","HHSHH","3","odd","33938","NA","NA","72277","73478","63228","2410","NA","NA","73369","2422","NA","NA","73479","73984","73361","Flanker Task-AHC","21","12128","23","yes","1024"
"91.6666666667","91.6666666667","524.458333333","524.458333333","black","legacy","legacy","legacy","0","incongruent","uniform","1","undefined","1","s","0","0","0","23","23","23","0","23","0","23","0","0","0","23","23","23","Sat Sep  8 22:40:04 2018","1500","The main experiment item","yes","FlankerTaskAHC.osexp","/Users/abigailchristie/Desktop/Faulkenberry","no","mono","no","18","no","white","no","yes","768","legacy","23","23","/Users/abigailchristie/Desktop/Faulkenberry/AHC03.csv","legacy","Kafkaesque Koffka","3.2.5","0","s","NA","s","NA","NA","s","459","NA","31506","NA","NA","459","2","legacy","1024","2","48000","-16","experiment","HHSHH","3","odd","33938","NA","NA","73997","75195","63228","2410","NA","NA","75085","2422","NA","NA","75195","75657","75076","Flanker Task-AHC","22","12587","24","yes","1024"
"92","92","525.2","525.2","black","legacy","legacy","legacy","0","incongruent","uniform","1","undefined","1","h","0","0","0","24","24","24","0","24","0","24","0","0","0","24","24","24","Sat Sep  8 22:40:04 2018","1500","The main experiment item","yes","FlankerTaskAHC.osexp","/Users/abigailchristie/Desktop/Faulkenberry","no","mono","no","18","no","white","no","yes","768","legacy","24","24","/Users/abigailchristie/Desktop/Faulkenberry/AHC03.csv","legacy","Kafkaesque Koffka","3.2.5","0","h","NA","s","NA","NA","h","543","NA","31506","NA","NA","543","2","legacy","1024","2","48000","-16","experiment","SSHSS","3","odd","33938","NA","NA","75668","76871","63228","2410","NA","NA","76760","2422","NA","NA","76871","77416","76752","Flanker Task-AHC","23","13130","25","yes","1024"
"92.3076923077","92.3076923077","524.692307692","524.692307692","black","legacy","legacy","legacy","0","incongruent","uniform","1","undefined","1","s","0","0","0","25","25","25","0","25","0","25","0","0","0","25","25","25","Sat Sep  8 22:40:04 2018","1500","The main experiment item","yes","FlankerTaskAHC.osexp","/Users/abigailchristie/Desktop/Faulkenberry","no","mono","no","18","no","white","no","yes","768","legacy","25","25","/Users/abigailchristie/Desktop/Faulkenberry/AHC03.csv","legacy","Kafkaesque Koffka","3.2.5","0","s","NA","s","NA","NA","s","512","NA","31506","NA","NA","512","2","legacy","1024","2","48000","-16","experiment","HHSHH","3","odd","33938","NA","NA","77427","78629","63228","2410","NA","NA","78520","2422","NA","NA","78629","79143","78512","Flanker Task-AHC","24","13642","26","yes","1024"
"92.5925925926","92.5925925926","527.296296296","527.296296296","black","legacy","legacy","legacy","0","congruent","uniform","1","undefined","1","h","0","0","0","26","26","26","0","26","0","26","0","0","0","26","26","26","Sat Sep  8 22:40:04 2018","1500","The main experiment item","yes","FlankerTaskAHC.osexp","/Users/abigailchristie/Desktop/Faulkenberry","no","mono","no","18","no","white","no","yes","768","legacy","26","26","/Users/abigailchristie/Desktop/Faulkenberry/AHC03.csv","legacy","Kafkaesque Koffka","3.2.5","0","h","NA","s","NA","NA","h","595","NA","31506","NA","NA","595","2","legacy","1024","2","48000","-16","experiment","HHHHH","3","odd","33938","NA","NA","79157","80355","63228","2410","NA","NA","80247","2422","NA","NA","80355","80952","80240","Flanker Task-AHC","25","14237","27","yes","1024"
"92.8571428571","92.8571428571","523.785714286","523.785714286","black","legacy","legacy","legacy","0","congruent","uniform","1","undefined","1","h","0","0","0","27","27","27","0","27","0","27","0","0","0","27","27","27","Sat Sep  8 22:40:04 2018","1500","The main experiment item","yes","FlankerTaskAHC.osexp","/Users/abigailchristie/Desktop/Faulkenberry","no","mono","no","18","no","white","no","yes","768","legacy","27","27","/Users/abigailchristie/Desktop/Faulkenberry/AHC03.csv","legacy","Kafkaesque Koffka","3.2.5","0","h","NA","s","NA","NA","h","429","NA","31506","NA","NA","429","2","legacy","1024","2","48000","-16","experiment","HHHHH","3","odd","33938","NA","NA","80963","82161","63228","2410","NA","NA","82051","2422","NA","NA","82161","82592","82044","Flanker Task-AHC","26","14666","28","yes","1024"
"93.1034482759","93.1034482759","520.793103448","520.793103448","black","legacy","legacy","legacy","0","incongruent","uniform","1","undefined","1","s","0","0","0","28","28","28","0","28","0","28","0","0","0","28","28","28","Sat Sep  8 22:40:04 2018","1500","The main experiment item","yes","FlankerTaskAHC.osexp","/Users/abigailchristie/Desktop/Faulkenberry","no","mono","no","18","no","white","no","yes","768","legacy","28","28","/Users/abigailchristie/Desktop/Faulkenberry/AHC03.csv","legacy","Kafkaesque Koffka","3.2.5","0","s","NA","s","NA","NA","s","437","NA","31506","NA","NA","437","2","legacy","1024","2","48000","-16","experiment","HHSHH","3","odd","33938","NA","NA","82604","83809","63228","2410","NA","NA","83699","2422","NA","NA","83809","84248","83691","Flanker Task-AHC","27","15103","29","yes","1024"
"93.3333333333","93.3333333333","521.966666667","521.966666667","black","legacy","legacy","legacy","0","incongruent","uniform","1","undefined","1","h","0","0","0","29","29","29","0","29","0","29","0","0","0","29","29","29","Sat Sep  8 22:40:04 2018","1500","The main experiment item","yes","FlankerTaskAHC.osexp","/Users/abigailchristie/Desktop/Faulkenberry","no","mono","no","18","no","white","no","yes","768","legacy","29","29","/Users/abigailchristie/Desktop/Faulkenberry/AHC03.csv","legacy","Kafkaesque Koffka","3.2.5","0","h","NA","s","NA","NA","h","556","NA","31506","NA","NA","556","2","legacy","1024","2","48000","-16","experiment","SSHSS","3","odd","33938","NA","NA","84259","85456","63228","2410","NA","NA","85347","2422","NA","NA","85457","86015","85339","Flanker Task-AHC","28","15659","30","yes","1024"
"93.5483870968","93.5483870968","519.677419355","519.677419355","black","legacy","legacy","legacy","0","congruent","uniform","1","undefined","1","h","0","0","0","30","30","30","0","30","0","30","0","0","0","30","30","30","Sat Sep  8 22:40:04 2018","1500","The main experiment item","yes","FlankerTaskAHC.osexp","/Users/abigailchristie/Desktop/Faulkenberry","no","mono","no","18","no","white","no","yes","768","legacy","30","30","/Users/abigailchristie/Desktop/Faulkenberry/AHC03.csv","legacy","Kafkaesque Koffka","3.2.5","0","h","NA","s","NA","NA","h","451","NA","31506","NA","NA","451","2","legacy","1024","2","48000","-16","experiment","HHHHH","3","odd","33938","NA","NA","86027","87227","63228","2410","NA","NA","87117","2422","NA","NA","87227","87680","87109","Flanker Task-AHC","29","16110","31","yes","1024"
"93.75","93.75","516.1875","516.1875","black","legacy","legacy","legacy","0","congruent","uniform","1","undefined","1","h","0","0","0","31","31","31","0","31","0","31","0","0","0","31","31","31","Sat Sep  8 22:40:04 2018","1500","The main experiment item","yes","FlankerTaskAHC.osexp","/Users/abigailchristie/Desktop/Faulkenberry","no","mono","no","18","no","white","no","yes","768","legacy","31","31","/Users/abigailchristie/Desktop/Faulkenberry/AHC03.csv","legacy","Kafkaesque Koffka","3.2.5","0","h","NA","s","NA","NA","h","408","NA","31506","NA","NA","408","2","legacy","1024","2","48000","-16","experiment","HHHHH","3","odd","33938","NA","NA","87693","88894","63228","2410","NA","NA","88785","2422","NA","NA","88894","89304","88777","Flanker Task-AHC","30","16518","32","yes","1024"
"93.9393939394","93.9393939394","513.424242424","513.424242424","black","legacy","legacy","legacy","0","congruent","uniform","1","undefined","1","s","0","0","0","32","32","32","0","32","0","32","0","0","0","32","32","32","Sat Sep  8 22:40:04 2018","1500","The main experiment item","yes","FlankerTaskAHC.osexp","/Users/abigailchristie/Desktop/Faulkenberry","no","mono","no","18","no","white","no","yes","768","legacy","32","32","/Users/abigailchristie/Desktop/Faulkenberry/AHC03.csv","legacy","Kafkaesque Koffka","3.2.5","0","s","NA","s","NA","NA","s","425","NA","31506","NA","NA","425","2","legacy","1024","2","48000","-16","experiment","SSSSS","3","odd","33938","NA","NA","89316","90516","63228","2410","NA","NA","90405","2422","NA","NA","90516","90944","90397","Flanker Task-AHC","31","16943","33","yes","1024"
"91.1764705882","91.1764705882","509.470588235","509.470588235","black","legacy","legacy","legacy","0","incongruent","uniform","0","undefined","0","s","0","0","0","33","33","33","0","33","0","33","0","0","0","33","33","33","Sat Sep  8 22:40:04 2018","1500","The main experiment item","yes","FlankerTaskAHC.osexp","/Users/abigailchristie/Desktop/Faulkenberry","no","mono","no","18","no","white","no","yes","768","legacy","33","33","/Users/abigailchristie/Desktop/Faulkenberry/AHC03.csv","legacy","Kafkaesque Koffka","3.2.5","0","h","NA","s","NA","NA","h","379","NA","31506","NA","NA","379","2","legacy","1024","2","48000","-16","experiment","HHSHH","3","odd","33938","NA","NA","90957","92153","63228","2410","NA","NA","92043","2422","NA","NA","92154","92535","92035","Flanker Task-AHC","31","17322","34","yes","1024"
"91.4285714286","91.4285714286","508.514285714","508.514285714","black","legacy","legacy","legacy","0","congruent","uniform","1","undefined","1","h","0","0","0","34","34","34","0","34","0","34","0","0","0","34","34","34","Sat Sep  8 22:40:04 2018","1500","The main experiment item","yes","FlankerTaskAHC.osexp","/Users/abigailchristie/Desktop/Faulkenberry","no","mono","no","18","no","white","no","yes","768","legacy","34","34","/Users/abigailchristie/Desktop/Faulkenberry/AHC03.csv","legacy","Kafkaesque Koffka","3.2.5","0","h","NA","s","NA","NA","h","476","NA","31506","NA","NA","476","2","legacy","1024","2","48000","-16","experiment","HHHHH","3","odd","33938","NA","NA","93056","94257","92548","2410","NA","NA","94148","2422","NA","NA","94257","94735","94141","Flanker Task-AHC","32","17798","35","yes","1024"
"91.6666666667","91.6666666667","506.333333333","506.333333333","black","legacy","legacy","legacy","0","congruent","uniform","1","undefined","1","s","0","0","0","35","35","35","0","35","0","35","0","0","0","35","35","35","Sat Sep  8 22:40:04 2018","1500","The main experiment item","yes","FlankerTaskAHC.osexp","/Users/abigailchristie/Desktop/Faulkenberry","no","mono","no","18","no","white","no","yes","768","legacy","35","35","/Users/abigailchristie/Desktop/Faulkenberry/AHC03.csv","legacy","Kafkaesque Koffka","3.2.5","0","s","NA","s","NA","NA","s","430","NA","31506","NA","NA","430","2","legacy","1024","2","48000","-16","experiment","SSSSS","3","odd","33938","NA","NA","94749","95951","92548","2410","NA","NA","95843","2422","NA","NA","95951","96383","95835","Flanker Task-AHC","33","18228","36","yes","1024"
"91.8918918919","91.8918918919","503.567567568","503.567567568","black","legacy","legacy","legacy","0","congruent","uniform","1","undefined","1","s","0","0","0","36","36","36","0","36","0","36","0","0","0","36","36","36","Sat Sep  8 22:40:04 2018","1500","The main experiment item","yes","FlankerTaskAHC.osexp","/Users/abigailchristie/Desktop/Faulkenberry","no","mono","no","18","no","white","no","yes","768","legacy","36","36","/Users/abigailchristie/Desktop/Faulkenberry/AHC03.csv","legacy","Kafkaesque Koffka","3.2.5","0","s","NA","s","NA","NA","s","404","NA","31506","NA","NA","404","2","legacy","1024","2","48000","-16","experiment","SSSSS","3","odd","33938","NA","NA","96396","97593","92548","2410","NA","NA","97484","2422","NA","NA","97593","97999","97476","Flanker Task-AHC","34","18632","37","yes","1024"
"92.1052631579","92.1052631579","501.552631579","501.552631579","black","legacy","legacy","legacy","0","congruent","uniform","1","undefined","1","s","0","0","0","37","37","37","0","37","0","37","0","0","0","37","37","37","Sat Sep  8 22:40:04 2018","1500","The main experiment item","yes","FlankerTaskAHC.osexp","/Users/abigailchristie/Desktop/Faulkenberry","no","mono","no","18","no","white","no","yes","768","legacy","37","37","/Users/abigailchristie/Desktop/Faulkenberry/AHC03.csv","legacy","Kafkaesque Koffka","3.2.5","0","s","NA","s","NA","NA","s","427","NA","31506","NA","NA","427","2","legacy","1024","2","48000","-16","experiment","SSSSS","3","odd","33938","NA","NA","98011","99210","92548","2410","NA","NA","99100","2422","NA","NA","99210","99640","99093","Flanker Task-AHC","35","19059","38","yes","1024"
"92.3076923077","92.3076923077","501.794871795","501.794871795","black","legacy","legacy","legacy","0","incongruent","uniform","1","undefined","1","h","0","0","0","38","38","38","0","38","0","38","0","0","0","38","38","38","Sat Sep  8 22:40:04 2018","1500","The main experiment item","yes","FlankerTaskAHC.osexp","/Users/abigailchristie/Desktop/Faulkenberry","no","mono","no","18","no","white","no","yes","768","legacy","38","38","/Users/abigailchristie/Desktop/Faulkenberry/AHC03.csv","legacy","Kafkaesque Koffka","3.2.5","0","h","NA","s","NA","NA","h","511","NA","31506","NA","NA","511","2","legacy","1024","2","48000","-16","experiment","SSHSS","3","odd","33938","NA","NA","99652","100854","92548","2410","NA","NA","100744","2422","NA","NA","100854","101367","100737","Flanker Task-AHC","36","19570","39","yes","1024"
"92.5","92.5","499.925","499.925","black","legacy","legacy","legacy","0","incongruent","uniform","1","undefined","1","h","0","0","0","39","39","39","0","39","0","39","0","0","0","39","39","39","Sat Sep  8 22:40:04 2018","1500","The main experiment item","yes","FlankerTaskAHC.osexp","/Users/abigailchristie/Desktop/Faulkenberry","no","mono","no","18","no","white","no","yes","768","legacy","39","39","/Users/abigailchristie/Desktop/Faulkenberry/AHC03.csv","legacy","Kafkaesque Koffka","3.2.5","0","h","NA","s","NA","NA","h","427","NA","31506","NA","NA","427","2","legacy","1024","2","48000","-16","experiment","SSHSS","3","odd","33938","NA","NA","101378","102576","92548","2410","NA","NA","102466","2422","NA","NA","102577","103006","102459","Flanker Task-AHC","37","19997","40","yes","1024"
"92.6829268293","92.6829268293","499.024390244","499.024390244","black","legacy","legacy","legacy","0","congruent","uniform","1","undefined","1","s","0","0","0","40","40","40","0","40","0","40","0","0","0","40","40","40","Sat Sep  8 22:40:04 2018","1500","The main experiment item","yes","FlankerTaskAHC.osexp","/Users/abigailchristie/Desktop/Faulkenberry","no","mono","no","18","no","white","no","yes","768","legacy","40","40","/Users/abigailchristie/Desktop/Faulkenberry/AHC03.csv","legacy","Kafkaesque Koffka","3.2.5","0","s","NA","s","NA","NA","s","463","NA","31506","NA","NA","463","2","legacy","1024","2","48000","-16","experiment","SSSSS","3","odd","33938","NA","NA","103017","104214","92548","2410","NA","NA","104105","2422","NA","NA","104214","104679","104097","Flanker Task-AHC","38","20460","41","yes","1024"
"92.8571428571","92.8571428571","496.19047619","496.19047619","black","legacy","legacy","legacy","0","congruent","uniform","1","undefined","1","s","0","0","0","41","41","41","0","41","0","41","0","0","0","41","41","41","Sat Sep  8 22:40:04 2018","1500","The main experiment item","yes","FlankerTaskAHC.osexp","/Users/abigailchristie/Desktop/Faulkenberry","no","mono","no","18","no","white","no","yes","768","legacy","41","41","/Users/abigailchristie/Desktop/Faulkenberry/AHC03.csv","legacy","Kafkaesque Koffka","3.2.5","0","s","NA","s","NA","NA","s","380","NA","31506","NA","NA","380","2","legacy","1024","2","48000","-16","experiment","SSSSS","3","odd","33938","NA","NA","104690","105889","92548","2410","NA","NA","105780","2422","NA","NA","105889","106271","105772","Flanker Task-AHC","39","20840","42","yes","1024"
"93.023255814","93.023255814","494.88372093","494.88372093","black","legacy","legacy","legacy","0","congruent","uniform","1","undefined","1","h","0","0","0","42","42","42","0","42","0","42","0","0","0","42","42","42","Sat Sep  8 22:40:04 2018","1500","The main experiment item","yes","FlankerTaskAHC.osexp","/Users/abigailchristie/Desktop/Faulkenberry","no","mono","no","18","no","white","no","yes","768","legacy","42","42","/Users/abigailchristie/Desktop/Faulkenberry/AHC03.csv","legacy","Kafkaesque Koffka","3.2.5","0","h","NA","s","NA","NA","h","440","NA","31506","NA","NA","440","2","legacy","1024","2","48000","-16","experiment","HHHHH","3","odd","33938","NA","NA","106284","107485","92548","2410","NA","NA","107376","2422","NA","NA","107485","107927","107368","Flanker Task-AHC","40","21280","43","yes","1024"
"90.9090909091","90.9090909091","494.704545455","494.704545455","black","legacy","legacy","legacy","0","incongruent","uniform","0","undefined","0","h","0","0","0","43","43","43","0","43","0","43","0","0","0","43","43","43","Sat Sep  8 22:40:04 2018","1500","The main experiment item","yes","FlankerTaskAHC.osexp","/Users/abigailchristie/Desktop/Faulkenberry","no","mono","no","18","no","white","no","yes","768","legacy","43","43","/Users/abigailchristie/Desktop/Faulkenberry/AHC03.csv","legacy","Kafkaesque Koffka","3.2.5","0","s","NA","s","NA","NA","s","487","NA","31506","NA","NA","487","2","legacy","1024","2","48000","-16","experiment","SSHSS","3","odd","33938","NA","NA","107940","109142","92548","2410","NA","NA","109032","2422","NA","NA","109142","109631","109024","Flanker Task-AHC","40","21767","44","yes","1024"
"91.1111111111","91.1111111111","494.133333333","494.133333333","black","legacy","legacy","legacy","0","congruent","uniform","1","undefined","1","s","0","0","0","44","44","44","0","44","0","44","0","0","0","44","44","44","Sat Sep  8 22:40:04 2018","1500","The main experiment item","yes","FlankerTaskAHC.osexp","/Users/abigailchristie/Desktop/Faulkenberry","no","mono","no","18","no","white","no","yes","768","legacy","44","44","/Users/abigailchristie/Desktop/Faulkenberry/AHC03.csv","legacy","Kafkaesque Koffka","3.2.5","0","s","NA","s","NA","NA","s","469","NA","31506","NA","NA","469","2","legacy","1024","2","48000","-16","experiment","SSSSS","3","odd","33938","NA","NA","110153","111350","109643","2410","NA","NA","111241","2422","NA","NA","111351","111823","111233","Flanker Task-AHC","41","22236","45","yes","1024"
"91.3043478261","91.3043478261","493.108695652","493.108695652","black","legacy","legacy","legacy","0","congruent","uniform","1","undefined","1","h","0","0","0","45","45","45","0","45","0","45","0","0","0","45","45","45","Sat Sep  8 22:40:04 2018","1500","The main experiment item","yes","FlankerTaskAHC.osexp","/Users/abigailchristie/Desktop/Faulkenberry","no","mono","no","18","no","white","no","yes","768","legacy","45","45","/Users/abigailchristie/Desktop/Faulkenberry/AHC03.csv","legacy","Kafkaesque Koffka","3.2.5","0","h","NA","s","NA","NA","h","447","NA","31506","NA","NA","447","2","legacy","1024","2","48000","-16","experiment","HHHHH","3","odd","33938","NA","NA","111835","113037","109643","2410","NA","NA","112928","2422","NA","NA","113037","113487","112920","Flanker Task-AHC","42","22683","46","yes","1024"
"91.4893617021","91.4893617021","492.382978723","492.382978723","black","legacy","legacy","legacy","0","incongruent","uniform","1","undefined","1","s","0","0","0","46","46","46","0","46","0","46","0","0","0","46","46","46","Sat Sep  8 22:40:04 2018","1500","The main experiment item","yes","FlankerTaskAHC.osexp","/Users/abigailchristie/Desktop/Faulkenberry","no","mono","no","18","no","white","no","yes","768","legacy","46","46","/Users/abigailchristie/Desktop/Faulkenberry/AHC03.csv","legacy","Kafkaesque Koffka","3.2.5","0","s","NA","s","NA","NA","s","459","NA","31506","NA","NA","459","2","legacy","1024","2","48000","-16","experiment","HHSHH","3","odd","33938","NA","NA","113498","114704","109643","2410","NA","NA","114595","2422","NA","NA","114705","115167","114587","Flanker Task-AHC","43","23142","47","yes","1024"
"91.6666666667","91.6666666667","491.375","491.375","black","legacy","legacy","legacy","0","congruent","uniform","1","undefined","1","h","0","0","0","47","47","47","0","47","0","47","0","0","0","47","47","47","Sat Sep  8 22:40:04 2018","1500","The main experiment item","yes","FlankerTaskAHC.osexp","/Users/abigailchristie/Desktop/Faulkenberry","no","mono","no","18","no","white","no","yes","768","legacy","47","47","/Users/abigailchristie/Desktop/Faulkenberry/AHC03.csv","legacy","Kafkaesque Koffka","3.2.5","0","h","NA","s","NA","NA","h","444","NA","31506","NA","NA","444","2","legacy","1024","2","48000","-16","experiment","HHHHH","3","odd","33938","NA","NA","115178","116376","109643","2410","NA","NA","116267","2422","NA","NA","116376","116822","116259","Flanker Task-AHC","44","23586","48","yes","1024"
"91.8367346939","91.8367346939","489.244897959","489.244897959","black","legacy","legacy","legacy","0","congruent","uniform","1","undefined","1","h","0","0","0","48","48","48","0","48","0","48","0","0","0","48","48","48","Sat Sep  8 22:40:04 2018","1500","The main experiment item","yes","FlankerTaskAHC.osexp","/Users/abigailchristie/Desktop/Faulkenberry","no","mono","no","18","no","white","no","yes","768","legacy","48","48","/Users/abigailchristie/Desktop/Faulkenberry/AHC03.csv","legacy","Kafkaesque Koffka","3.2.5","0","h","NA","s","NA","NA","h","387","NA","31506","NA","NA","387","2","legacy","1024","2","48000","-16","experiment","HHHHH","3","odd","33938","NA","NA","116834","118033","109643","2410","NA","NA","117923","2422","NA","NA","118033","118423","117915","Flanker Task-AHC","45","23973","49","yes","1024"
"92","92","488.12","488.12","black","legacy","legacy","legacy","0","congruent","uniform","1","undefined","1","s","0","0","0","49","49","49","0","49","0","49","0","0","0","49","49","49","Sat Sep  8 22:40:04 2018","1500","The main experiment item","yes","FlankerTaskAHC.osexp","/Users/abigailchristie/Desktop/Faulkenberry","no","mono","no","18","no","white","no","yes","768","legacy","49","49","/Users/abigailchristie/Desktop/Faulkenberry/AHC03.csv","legacy","Kafkaesque Koffka","3.2.5","0","s","NA","s","NA","NA","s","433","NA","31506","NA","NA","433","2","legacy","1024","2","48000","-16","experiment","SSSSS","3","odd","33938","NA","NA","118436","119634","109643","2410","NA","NA","119524","2422","NA","NA","119634","120069","119517","Flanker Task-AHC","46","24406","50","yes","1024"
"92.1568627451","92.1568627451","487.549019608","487.549019608","black","legacy","legacy","legacy","0","incongruent","uniform","1","undefined","1","h","0","0","0","50","50","50","0","50","0","50","0","0","0","50","50","50","Sat Sep  8 22:40:04 2018","1500","The main experiment item","yes","FlankerTaskAHC.osexp","/Users/abigailchristie/Desktop/Faulkenberry","no","mono","no","18","no","white","no","yes","768","legacy","50","50","/Users/abigailchristie/Desktop/Faulkenberry/AHC03.csv","legacy","Kafkaesque Koffka","3.2.5","0","h","NA","s","NA","NA","h","459","NA","31506","NA","NA","459","2","legacy","1024","2","48000","-16","experiment","SSHSS","3","odd","33938","NA","NA","120080","121281","109643","2410","NA","NA","121172","2422","NA","NA","121281","121742","121165","Flanker Task-AHC","47","24865","51","yes","1024"
"92.3076923077","92.3076923077","487.096153846","487.096153846","black","legacy","legacy","legacy","0","incongruent","uniform","1","undefined","1","h","0","0","0","51","51","51","0","51","0","51","0","0","0","51","51","51","Sat Sep  8 22:40:04 2018","1500","The main experiment item","yes","FlankerTaskAHC.osexp","/Users/abigailchristie/Desktop/Faulkenberry","no","mono","no","18","no","white","no","yes","768","legacy","51","51","/Users/abigailchristie/Desktop/Faulkenberry/AHC03.csv","legacy","Kafkaesque Koffka","3.2.5","0","h","NA","s","NA","NA","h","464","NA","31506","NA","NA","464","2","legacy","1024","2","48000","-16","experiment","SSHSS","3","odd","33938","NA","NA","121752","122948","109643","2410","NA","NA","122839","2422","NA","NA","122948","123414","122832","Flanker Task-AHC","48","25329","52","yes","1024"
"92.4528301887","92.4528301887","485.660377358","485.660377358","black","legacy","legacy","legacy","0","congruent","uniform","1","undefined","1","h","0","0","0","52","52","52","0","52","0","52","0","0","0","52","52","52","Sat Sep  8 22:40:04 2018","1500","The main experiment item","yes","FlankerTaskAHC.osexp","/Users/abigailchristie/Desktop/Faulkenberry","no","mono","no","18","no","white","no","yes","768","legacy","52","52","/Users/abigailchristie/Desktop/Faulkenberry/AHC03.csv","legacy","Kafkaesque Koffka","3.2.5","0","h","NA","s","NA","NA","h","411","NA","31506","NA","NA","411","2","legacy","1024","2","48000","-16","experiment","HHHHH","3","odd","33938","NA","NA","123425","124624","109643","2410","NA","NA","124515","2422","NA","NA","124624","125037","124507","Flanker Task-AHC","49","25740","53","yes","1024"
"92.5925925926","92.5925925926","485.537037037","485.537037037","black","legacy","legacy","legacy","0","incongruent","uniform","1","undefined","1","h","0","0","0","53","53","53","0","53","0","53","0","0","0","53","53","53","Sat Sep  8 22:40:04 2018","1500","The main experiment item","yes","FlankerTaskAHC.osexp","/Users/abigailchristie/Desktop/Faulkenberry","no","mono","no","18","no","white","no","yes","768","legacy","53","53","/Users/abigailchristie/Desktop/Faulkenberry/AHC03.csv","legacy","Kafkaesque Koffka","3.2.5","0","h","NA","s","NA","NA","h","479","NA","31506","NA","NA","479","2","legacy","1024","2","48000","-16","experiment","SSHSS","3","odd","33938","NA","NA","125049","126245","109643","2410","NA","NA","126136","2422","NA","NA","126245","126726","126128","Flanker Task-AHC","50","26219","54","yes","1024"
"92.7272727273","92.7272727273","485.363636364","485.363636364","black","legacy","legacy","legacy","0","incongruent","uniform","1","undefined","1","h","0","0","0","54","54","54","0","54","0","54","0","0","0","54","54","54","Sat Sep  8 22:40:04 2018","1500","The main experiment item","yes","FlankerTaskAHC.osexp","/Users/abigailchristie/Desktop/Faulkenberry","no","mono","no","18","no","white","no","yes","768","legacy","54","54","/Users/abigailchristie/Desktop/Faulkenberry/AHC03.csv","legacy","Kafkaesque Koffka","3.2.5","0","h","NA","s","NA","NA","h","476","NA","31506","NA","NA","476","2","legacy","1024","2","48000","-16","experiment","SSHSS","3","odd","33938","NA","NA","126737","127936","109643","2410","NA","NA","127827","2422","NA","NA","127936","128415","127819","Flanker Task-AHC","51","26695","55","yes","1024"
"92.8571428571","92.8571428571","484.071428571","484.071428571","black","legacy","legacy","legacy","0","congruent","uniform","1","undefined","1","h","0","0","0","55","55","55","0","55","0","55","0","0","0","55","55","55","Sat Sep  8 22:40:04 2018","1500","The main experiment item","yes","FlankerTaskAHC.osexp","/Users/abigailchristie/Desktop/Faulkenberry","no","mono","no","18","no","white","no","yes","768","legacy","55","55","/Users/abigailchristie/Desktop/Faulkenberry/AHC03.csv","legacy","Kafkaesque Koffka","3.2.5","0","h","NA","s","NA","NA","h","413","NA","31506","NA","NA","413","2","legacy","1024","2","48000","-16","experiment","HHHHH","3","odd","33938","NA","NA","128426","129630","109643","2410","NA","NA","129520","2422","NA","NA","129630","130045","129512","Flanker Task-AHC","52","27108","56","yes","1024"
"92.9824561404","92.9824561404","485.684210526","485.684210526","black","legacy","legacy","legacy","0","incongruent","uniform","1","undefined","1","s","0","0","0","56","56","56","0","56","0","56","0","0","0","56","56","56","Sat Sep  8 22:40:04 2018","1500","The main experiment item","yes","FlankerTaskAHC.osexp","/Users/abigailchristie/Desktop/Faulkenberry","no","mono","no","18","no","white","no","yes","768","legacy","56","56","/Users/abigailchristie/Desktop/Faulkenberry/AHC03.csv","legacy","Kafkaesque Koffka","3.2.5","0","s","NA","s","NA","NA","s","576","NA","31506","NA","NA","576","2","legacy","1024","2","48000","-16","experiment","HHSHH","3","odd","33938","NA","NA","130056","131252","109643","2410","NA","NA","131143","2422","NA","NA","131252","131830","131136","Flanker Task-AHC","53","27684","57","yes","1024"
"93.1034482759","93.1034482759","485.086206897","485.086206897","black","legacy","legacy","legacy","0","congruent","uniform","1","undefined","1","s","0","0","0","57","57","57","0","57","0","57","0","0","0","57","57","57","Sat Sep  8 22:40:04 2018","1500","The main experiment item","yes","FlankerTaskAHC.osexp","/Users/abigailchristie/Desktop/Faulkenberry","no","mono","no","18","no","white","no","yes","768","legacy","57","57","/Users/abigailchristie/Desktop/Faulkenberry/AHC03.csv","legacy","Kafkaesque Koffka","3.2.5","0","s","NA","s","NA","NA","s","451","NA","31506","NA","NA","451","2","legacy","1024","2","48000","-16","experiment","SSSSS","3","odd","33938","NA","NA","131840","133041","109643","2410","NA","NA","132932","2422","NA","NA","133041","133494","132925","Flanker Task-AHC","54","28135","58","yes","1024"
"93.2203389831","93.2203389831","486.525423729","486.525423729","black","legacy","legacy","legacy","0","incongruent","uniform","1","undefined","1","s","0","0","0","58","58","58","0","58","0","58","0","0","0","58","58","58","Sat Sep  8 22:40:04 2018","1500","The main experiment item","yes","FlankerTaskAHC.osexp","/Users/abigailchristie/Desktop/Faulkenberry","no","mono","no","18","no","white","no","yes","768","legacy","58","58","/Users/abigailchristie/Desktop/Faulkenberry/AHC03.csv","legacy","Kafkaesque Koffka","3.2.5","0","s","NA","s","NA","NA","s","570","NA","31506","NA","NA","570","2","legacy","1024","2","48000","-16","experiment","HHSHH","3","odd","33938","NA","NA","133506","134705","109643","2410","NA","NA","134596","2422","NA","NA","134705","135278","134588","Flanker Task-AHC","55","28705","59","yes","1024"
"93.3333333333","93.3333333333","485.75","485.75","black","legacy","legacy","legacy","0","congruent","uniform","1","undefined","1","h","0","0","0","59","59","59","0","59","0","59","0","0","0","59","59","59","Sat Sep  8 22:40:04 2018","1500","The main experiment item","yes","FlankerTaskAHC.osexp","/Users/abigailchristie/Desktop/Faulkenberry","no","mono","no","18","no","white","no","yes","768","legacy","59","59","/Users/abigailchristie/Desktop/Faulkenberry/AHC03.csv","legacy","Kafkaesque Koffka","3.2.5","0","h","NA","s","NA","NA","h","440","NA","31506","NA","NA","440","2","legacy","1024","2","48000","-16","experiment","HHHHH","3","odd","33938","NA","NA","135289","136490","109643","2410","NA","NA","136381","2422","NA","NA","136491","136933","136372","Flanker Task-AHC","56","29145","60","yes","1024"
"93.4426229508","93.4426229508","487.737704918","487.737704918","black","legacy","legacy","legacy","0","incongruent","uniform","1","undefined","1","h","0","0","0","60","60","60","0","60","0","60","0","0","0","60","60","60","Sat Sep  8 22:40:04 2018","1500","The main experiment item","yes","FlankerTaskAHC.osexp","/Users/abigailchristie/Desktop/Faulkenberry","no","mono","no","18","no","white","no","yes","768","legacy","60","60","/Users/abigailchristie/Desktop/Faulkenberry/AHC03.csv","legacy","Kafkaesque Koffka","3.2.5","0","h","NA","s","NA","NA","h","607","NA","31506","NA","NA","607","2","legacy","1024","2","48000","-16","experiment","SSHSS","3","odd","33938","NA","NA","136944","138148","109643","2410","NA","NA","138038","2422","NA","NA","138148","138758","138030","Flanker Task-AHC","57","29752","61","yes","1024"
"93.5483870968","93.5483870968","486.35483871","486.35483871","black","legacy","legacy","legacy","0","congruent","uniform","1","undefined","1","h","0","0","0","61","61","61","0","61","0","61","0","0","0","61","61","61","Sat Sep  8 22:40:04 2018","1500","The main experiment item","yes","FlankerTaskAHC.osexp","/Users/abigailchristie/Desktop/Faulkenberry","no","mono","no","18","no","white","no","yes","768","legacy","61","61","/Users/abigailchristie/Desktop/Faulkenberry/AHC03.csv","legacy","Kafkaesque Koffka","3.2.5","0","h","NA","s","NA","NA","h","402","NA","31506","NA","NA","402","2","legacy","1024","2","48000","-16","experiment","HHHHH","3","odd","33938","NA","NA","138770","139968","109643","2410","NA","NA","139860","2422","NA","NA","139969","140374","139852","Flanker Task-AHC","58","30154","62","yes","1024"
"93.6507936508","93.6507936508","485.412698413","485.412698413","black","legacy","legacy","legacy","0","congruent","uniform","1","undefined","1","s","0","0","0","62","62","62","0","62","0","62","0","0","0","62","62","62","Sat Sep  8 22:40:04 2018","1500","The main experiment item","yes","FlankerTaskAHC.osexp","/Users/abigailchristie/Desktop/Faulkenberry","no","mono","no","18","no","white","no","yes","768","legacy","62","62","/Users/abigailchristie/Desktop/Faulkenberry/AHC03.csv","legacy","Kafkaesque Koffka","3.2.5","0","s","NA","s","NA","NA","s","427","NA","31506","NA","NA","427","2","legacy","1024","2","48000","-16","experiment","SSSSS","3","odd","33938","NA","NA","140385","141583","109643","2410","NA","NA","141474","2422","NA","NA","141583","142012","141466","Flanker Task-AHC","59","30581","63","yes","1024"
"93.75","93.75","483.90625","483.90625","black","legacy","legacy","legacy","0","congruent","uniform","1","undefined","1","s","0","0","0","63","63","63","0","63","0","63","0","0","0","63","63","63","Sat Sep  8 22:40:04 2018","1500","The main experiment item","yes","FlankerTaskAHC.osexp","/Users/abigailchristie/Desktop/Faulkenberry","no","mono","no","18","no","white","no","yes","768","legacy","63","63","/Users/abigailchristie/Desktop/Faulkenberry/AHC03.csv","legacy","Kafkaesque Koffka","3.2.5","0","s","NA","s","NA","NA","s","389","NA","31506","NA","NA","389","2","legacy","1024","2","48000","-16","experiment","SSSSS","3","odd","33938","NA","NA","142024","143222","109643","2410","NA","NA","143112","2422","NA","NA","143222","143614","143105","Flanker Task-AHC","60","30970","64","yes","1024"
"93.8461538462","93.8461538462","486.015384615","486.015384615","black","legacy","legacy","legacy","0","incongruent","uniform","1","undefined","1","s","0","0","0","64","64","64","0","64","0","64","0","0","0","64","64","64","Sat Sep  8 22:40:04 2018","1500","The main experiment item","yes","FlankerTaskAHC.osexp","/Users/abigailchristie/Desktop/Faulkenberry","no","mono","no","18","no","white","no","yes","768","legacy","64","64","/Users/abigailchristie/Desktop/Faulkenberry/AHC03.csv","legacy","Kafkaesque Koffka","3.2.5","0","s","NA","s","NA","NA","s","621","NA","31506","NA","NA","621","2","legacy","1024","2","48000","-16","experiment","HHSHH","3","odd","33938","NA","NA","143625","144822","109643","2410","NA","NA","144713","2422","NA","NA","144822","145446","144705","Flanker Task-AHC","61","31591","65","yes","1024"
"93.9393939394","93.9393939394","484.772727273","484.772727273","black","legacy","legacy","legacy","0","congruent","uniform","1","undefined","1","s","0","0","0","65","65","65","0","65","0","65","0","0","0","65","65","65","Sat Sep  8 22:40:04 2018","1500","The main experiment item","yes","FlankerTaskAHC.osexp","/Users/abigailchristie/Desktop/Faulkenberry","no","mono","no","18","no","white","no","yes","768","legacy","65","65","/Users/abigailchristie/Desktop/Faulkenberry/AHC03.csv","legacy","Kafkaesque Koffka","3.2.5","0","s","NA","s","NA","NA","s","404","NA","31506","NA","NA","404","2","legacy","1024","2","48000","-16","experiment","SSSSS","3","odd","33938","NA","NA","145458","146662","109643","2410","NA","NA","146553","2422","NA","NA","146662","147069","146545","Flanker Task-AHC","62","31995","66","yes","1024"
"94.0298507463","94.0298507463","483.895522388","483.895522388","black","legacy","legacy","legacy","0","congruent","uniform","1","undefined","1","s","0","0","0","66","66","66","0","66","0","66","0","0","0","66","66","66","Sat Sep  8 22:40:04 2018","1500","The main experiment item","yes","FlankerTaskAHC.osexp","/Users/abigailchristie/Desktop/Faulkenberry","no","mono","no","18","no","white","no","yes","768","legacy","66","66","/Users/abigailchristie/Desktop/Faulkenberry/AHC03.csv","legacy","Kafkaesque Koffka","3.2.5","0","s","NA","s","NA","NA","s","426","NA","31506","NA","NA","426","2","legacy","1024","2","48000","-16","experiment","SSSSS","3","odd","33938","NA","NA","147082","148281","109643","2410","NA","NA","148171","2422","NA","NA","148281","148709","148163","Flanker Task-AHC","63","32421","67","yes","1024"
"94.1176470588","94.1176470588","483.073529412","483.073529412","black","legacy","legacy","legacy","0","congruent","uniform","1","undefined","1","s","0","0","0","67","67","67","0","67","0","67","0","0","0","67","67","67","Sat Sep  8 22:40:04 2018","1500","The main experiment item","yes","FlankerTaskAHC.osexp","/Users/abigailchristie/Desktop/Faulkenberry","no","mono","no","18","no","white","no","yes","768","legacy","67","67","/Users/abigailchristie/Desktop/Faulkenberry/AHC03.csv","legacy","Kafkaesque Koffka","3.2.5","0","s","NA","s","NA","NA","s","428","NA","31506","NA","NA","428","2","legacy","1024","2","48000","-16","experiment","SSSSS","3","odd","33938","NA","NA","148720","149919","109643","2410","NA","NA","149809","2422","NA","NA","149919","150350","149801","Flanker Task-AHC","64","32849","68","yes","1024"
"94.2028985507","94.2028985507","482.826086957","482.826086957","black","legacy","legacy","legacy","0","congruent","uniform","1","undefined","1","s","0","0","0","68","68","68","0","68","0","68","0","0","0","68","68","68","Sat Sep  8 22:40:04 2018","1500","The main experiment item","yes","FlankerTaskAHC.osexp","/Users/abigailchristie/Desktop/Faulkenberry","no","mono","no","18","no","white","no","yes","768","legacy","68","68","/Users/abigailchristie/Desktop/Faulkenberry/AHC03.csv","legacy","Kafkaesque Koffka","3.2.5","0","s","NA","s","NA","NA","s","466","NA","31506","NA","NA","466","2","legacy","1024","2","48000","-16","experiment","SSSSS","3","odd","33938","NA","NA","150361","151559","109643","2410","NA","NA","151452","2422","NA","NA","151560","152028","151444","Flanker Task-AHC","65","33315","69","yes","1024"
"94.2857142857","94.2857142857","483.042857143","483.042857143","black","legacy","legacy","legacy","0","congruent","uniform","1","undefined","1","h","0","0","0","69","69","69","0","69","0","69","0","0","0","69","69","69","Sat Sep  8 22:40:04 2018","1500","The main experiment item","yes","FlankerTaskAHC.osexp","/Users/abigailchristie/Desktop/Faulkenberry","no","mono","no","18","no","white","no","yes","768","legacy","69","69","/Users/abigailchristie/Desktop/Faulkenberry/AHC03.csv","legacy","Kafkaesque Koffka","3.2.5","0","h","NA","s","NA","NA","h","498","NA","31506","NA","NA","498","2","legacy","1024","2","48000","-16","experiment","HHHHH","3","odd","33938","NA","NA","152040","153241","109643","2410","NA","NA","153132","2422","NA","NA","153241","153741","153124","Flanker Task-AHC","66","33813","70","yes","1024"
"94.3661971831","94.3661971831","482.633802817","482.633802817","black","legacy","legacy","legacy","0","congruent","uniform","1","undefined","1","s","0","0","0","70","70","70","0","70","0","70","0","0","0","70","70","70","Sat Sep  8 22:40:04 2018","1500","The main experiment item","yes","FlankerTaskAHC.osexp","/Users/abigailchristie/Desktop/Faulkenberry","no","mono","no","18","no","white","no","yes","768","legacy","70","70","/Users/abigailchristie/Desktop/Faulkenberry/AHC03.csv","legacy","Kafkaesque Koffka","3.2.5","0","s","NA","s","NA","NA","s","454","NA","31506","NA","NA","454","2","legacy","1024","2","48000","-16","experiment","SSSSS","3","odd","33938","NA","NA","153753","154957","109643","2410","NA","NA","154848","2422","NA","NA","154957","155413","154839","Flanker Task-AHC","67","34267","71","yes","1024"
"94.4444444444","94.4444444444","481.625","481.625","black","legacy","legacy","legacy","0","congruent","uniform","1","undefined","1","s","0","0","0","71","71","71","0","71","0","71","0","0","0","71","71","71","Sat Sep  8 22:40:04 2018","1500","The main experiment item","yes","FlankerTaskAHC.osexp","/Users/abigailchristie/Desktop/Faulkenberry","no","mono","no","18","no","white","no","yes","768","legacy","71","71","/Users/abigailchristie/Desktop/Faulkenberry/AHC03.csv","legacy","Kafkaesque Koffka","3.2.5","0","s","NA","s","NA","NA","s","410","NA","31506","NA","NA","410","2","legacy","1024","2","48000","-16","experiment","SSSSS","3","odd","33938","NA","NA","155425","156623","109643","2410","NA","NA","156514","2422","NA","NA","156623","157036","156506","Flanker Task-AHC","68","34677","72","yes","1024"
"94.5205479452","94.5205479452","484.479452055","484.479452055","black","legacy","legacy","legacy","0","congruent","uniform","1","undefined","1","s","0","0","0","72","72","72","0","72","0","72","0","0","0","72","72","72","Sat Sep  8 22:40:04 2018","1500","The main experiment item","yes","FlankerTaskAHC.osexp","/Users/abigailchristie/Desktop/Faulkenberry","no","mono","no","18","no","white","no","yes","768","legacy","72","72","/Users/abigailchristie/Desktop/Faulkenberry/AHC03.csv","legacy","Kafkaesque Koffka","3.2.5","0","s","NA","s","NA","NA","s","690","NA","31506","NA","NA","690","2","legacy","1024","2","48000","-16","experiment","SSSSS","3","odd","33938","NA","NA","157047","158248","109643","2410","NA","NA","158139","2422","NA","NA","158248","158941","158130","Flanker Task-AHC","69","35367","73","yes","1024"
"94.5945945946","94.5945945946","486.283783784","486.283783784","black","legacy","legacy","legacy","0","incongruent","uniform","1","undefined","1","s","0","0","0","73","73","73","0","73","0","73","0","0","0","73","73","73","Sat Sep  8 22:40:04 2018","1500","The main experiment item","yes","FlankerTaskAHC.osexp","/Users/abigailchristie/Desktop/Faulkenberry","no","mono","no","18","no","white","no","yes","768","legacy","73","73","/Users/abigailchristie/Desktop/Faulkenberry/AHC03.csv","legacy","Kafkaesque Koffka","3.2.5","0","s","NA","s","NA","NA","s","618","NA","31506","NA","NA","618","2","legacy","1024","2","48000","-16","experiment","HHSHH","3","odd","33938","NA","NA","158952","160152","109643","2410","NA","NA","160040","2422","NA","NA","160152","160774","160032","Flanker Task-AHC","70","35985","74","yes","1024"
"94.6666666667","94.6666666667","485.32","485.32","black","legacy","legacy","legacy","0","congruent","uniform","1","undefined","1","h","0","0","0","74","74","74","0","74","0","74","0","0","0","74","74","74","Sat Sep  8 22:40:04 2018","1500","The main experiment item","yes","FlankerTaskAHC.osexp","/Users/abigailchristie/Desktop/Faulkenberry","no","mono","no","18","no","white","no","yes","768","legacy","74","74","/Users/abigailchristie/Desktop/Faulkenberry/AHC03.csv","legacy","Kafkaesque Koffka","3.2.5","0","h","NA","s","NA","NA","h","414","NA","31506","NA","NA","414","2","legacy","1024","2","48000","-16","experiment","HHHHH","3","odd","33938","NA","NA","160786","161988","109643","2410","NA","NA","161879","2422","NA","NA","161988","162405","161871","Flanker Task-AHC","71","36399","75","yes","1024"
"94.7368421053","94.7368421053","485.355263158","485.355263158","black","legacy","legacy","legacy","0","incongruent","uniform","1","undefined","1","s","0","0","0","75","75","75","0","75","0","75","0","0","0","75","75","75","Sat Sep  8 22:40:04 2018","1500","The main experiment item","yes","FlankerTaskAHC.osexp","/Users/abigailchristie/Desktop/Faulkenberry","no","mono","no","18","no","white","no","yes","768","legacy","75","75","/Users/abigailchristie/Desktop/Faulkenberry/AHC03.csv","legacy","Kafkaesque Koffka","3.2.5","0","s","NA","s","NA","NA","s","488","NA","31506","NA","NA","488","2","legacy","1024","2","48000","-16","experiment","HHSHH","3","odd","33938","NA","NA","162417","163617","109643","2410","NA","NA","163508","2422","NA","NA","163617","164108","163500","Flanker Task-AHC","72","36887","76","yes","1024"
"94.8051948052","94.8051948052","484.311688312","484.311688312","black","legacy","legacy","legacy","0","incongruent","uniform","1","undefined","1","s","0","0","0","76","76","76","0","76","0","76","0","0","0","76","76","76","Sat Sep  8 22:40:04 2018","1500","The main experiment item","yes","FlankerTaskAHC.osexp","/Users/abigailchristie/Desktop/Faulkenberry","no","mono","no","18","no","white","no","yes","768","legacy","76","76","/Users/abigailchristie/Desktop/Faulkenberry/AHC03.csv","legacy","Kafkaesque Koffka","3.2.5","0","s","NA","s","NA","NA","s","405","NA","31506","NA","NA","405","2","legacy","1024","2","48000","-16","experiment","HHSHH","3","odd","33938","NA","NA","164119","165317","109643","2410","NA","NA","165209","2422","NA","NA","165317","165725","165201","Flanker Task-AHC","73","37292","77","yes","1024"
"94.8717948718","94.8717948718","484.974358974","484.974358974","black","legacy","legacy","legacy","0","incongruent","uniform","1","undefined","1","s","0","0","0","77","77","77","0","77","0","77","0","0","0","77","77","77","Sat Sep  8 22:40:04 2018","1500","The main experiment item","yes","FlankerTaskAHC.osexp","/Users/abigailchristie/Desktop/Faulkenberry","no","mono","no","18","no","white","no","yes","768","legacy","77","77","/Users/abigailchristie/Desktop/Faulkenberry/AHC03.csv","legacy","Kafkaesque Koffka","3.2.5","0","s","NA","s","NA","NA","s","536","NA","31506","NA","NA","536","2","legacy","1024","2","48000","-16","experiment","HHSHH","3","odd","33938","NA","NA","165737","166937","109643","2410","NA","NA","166828","2422","NA","NA","166938","167477","166820","Flanker Task-AHC","74","37828","78","yes","1024"
"94.9367088608","94.9367088608","485.35443038","485.35443038","black","legacy","legacy","legacy","0","incongruent","uniform","1","undefined","1","s","0","0","0","78","78","78","0","78","0","78","0","0","0","78","78","78","Sat Sep  8 22:40:04 2018","1500","The main experiment item","yes","FlankerTaskAHC.osexp","/Users/abigailchristie/Desktop/Faulkenberry","no","mono","no","18","no","white","no","yes","768","legacy","78","78","/Users/abigailchristie/Desktop/Faulkenberry/AHC03.csv","legacy","Kafkaesque Koffka","3.2.5","0","s","NA","s","NA","NA","s","515","NA","31506","NA","NA","515","2","legacy","1024","2","48000","-16","experiment","HHSHH","3","odd","33938","NA","NA","167490","168687","109643","2410","NA","NA","168579","2422","NA","NA","168687","169205","168570","Flanker Task-AHC","75","38343","79","yes","1024"
"95","95","486.025","486.025","black","legacy","legacy","legacy","0","incongruent","uniform","1","undefined","1","h","0","0","0","79","79","79","0","79","0","79","0","0","0","79","79","79","Sat Sep  8 22:40:04 2018","1500","The main experiment item","yes","FlankerTaskAHC.osexp","/Users/abigailchristie/Desktop/Faulkenberry","no","mono","no","18","no","white","no","yes","768","legacy","79","79","/Users/abigailchristie/Desktop/Faulkenberry/AHC03.csv","legacy","Kafkaesque Koffka","3.2.5","0","h","NA","s","NA","NA","h","539","NA","31506","NA","NA","539","2","legacy","1024","2","48000","-16","experiment","SSHSS","3","odd","33938","NA","NA","169217","170423","109643","2410","NA","NA","170314","2422","NA","NA","170423","170964","170306","Flanker Task-AHC","76","38882","80","yes","1024"
"95.0617283951","95.0617283951","485.37037037","485.37037037","black","legacy","legacy","legacy","0","congruent","uniform","1","undefined","1","s","0","0","0","80","80","80","0","80","0","80","0","0","0","80","80","80","Sat Sep  8 22:40:04 2018","600","The main experiment item","yes","FlankerTaskAHC.osexp","/Users/abigailchristie/Desktop/Faulkenberry","no","mono","no","18","no","white","no","yes","768","legacy","0","79","/Users/abigailchristie/Desktop/Faulkenberry/AHC03.csv","legacy","Kafkaesque Koffka","3.2.5","0","s","NA","s","s","NA","s","433","NA","31506","137889","NA","433","2","legacy","1024","2","48000","-16","experiment","SSSSS","3","odd","33938","309892","NA","170976","310088","109643","2410","NA","NA","309980","2422","172000","NA","310088","310523","309971","Flanker Task-AHC","77","39315","81","yes","1024"
"93.9024390244","93.9024390244","484.768292683","484.768292683","black","legacy","legacy","legacy","0","incongruent","uniform","0","undefined","0","s","0","0","0","81","81","81","0","81","0","81","0","0","0","81","81","81","Sat Sep  8 22:40:04 2018","600","The main experiment item","yes","FlankerTaskAHC.osexp","/Users/abigailchristie/Desktop/Faulkenberry","no","mono","no","18","no","white","no","yes","768","legacy","1","79","/Users/abigailchristie/Desktop/Faulkenberry/AHC03.csv","legacy","Kafkaesque Koffka","3.2.5","0","h","NA","s","s","NA","h","436","NA","31506","137889","NA","436","2","legacy","1024","2","48000","-16","experiment","HHSHH","3","odd","33938","309892","NA","310536","311733","109643","2410","NA","NA","311624","2422","172000","NA","311733","312171","311617","Flanker Task-AHC","77","39751","82","yes","1024"
"93.9759036145","93.9759036145","483.421686747","483.421686747","black","legacy","legacy","legacy","0","congruent","uniform","1","undefined","1","s","0","0","0","82","82","82","0","82","0","82","0","0","0","82","82","82","Sat Sep  8 22:40:04 2018","600","The main experiment item","yes","FlankerTaskAHC.osexp","/Users/abigailchristie/Desktop/Faulkenberry","no","mono","no","18","no","white","no","yes","768","legacy","2","79","/Users/abigailchristie/Desktop/Faulkenberry/AHC03.csv","legacy","Kafkaesque Koffka","3.2.5","0","s","NA","s","s","NA","s","373","NA","31506","137889","NA","373","2","legacy","1024","2","48000","-16","experiment","SSSSS","3","odd","33938","309892","NA","312694","313892","312185","2410","NA","NA","313783","2422","172000","NA","313892","314267","313775","Flanker Task-AHC","78","40124","83","yes","1024"
"94.0476190476","94.0476190476","483.726190476","483.726190476","black","legacy","legacy","legacy","0","incongruent","uniform","1","undefined","1","s","0","0","0","83","83","83","0","83","0","83","0","0","0","83","83","83","Sat Sep  8 22:40:04 2018","600","The main experiment item","yes","FlankerTaskAHC.osexp","/Users/abigailchristie/Desktop/Faulkenberry","no","mono","no","18","no","white","no","yes","768","legacy","3","79","/Users/abigailchristie/Desktop/Faulkenberry/AHC03.csv","legacy","Kafkaesque Koffka","3.2.5","0","s","NA","s","s","NA","s","509","NA","31506","137889","NA","509","2","legacy","1024","2","48000","-16","experiment","HHSHH","3","odd","33938","309892","NA","314278","315476","312185","2410","NA","NA","315366","2422","172000","NA","315476","315988","315358","Flanker Task-AHC","79","40633","84","yes","1024"
"94.1176470588","94.1176470588","482.388235294","482.388235294","black","legacy","legacy","legacy","0","incongruent","uniform","1","undefined","1","s","0","0","0","84","84","84","0","84","0","84","0","0","0","84","84","84","Sat Sep  8 22:40:04 2018","600","The main experiment item","yes","FlankerTaskAHC.osexp","/Users/abigailchristie/Desktop/Faulkenberry","no","mono","no","18","no","white","no","yes","768","legacy","4","79","/Users/abigailchristie/Desktop/Faulkenberry/AHC03.csv","legacy","Kafkaesque Koffka","3.2.5","0","s","NA","s","s","NA","s","370","NA","31506","137889","NA","370","2","legacy","1024","2","48000","-16","experiment","HHSHH","3","odd","33938","309892","NA","316000","317198","312185","2410","NA","NA","317088","2422","172000","NA","317198","317571","317081","Flanker Task-AHC","80","41003","85","yes","1024"
"94.1860465116","94.1860465116","481","481","black","legacy","legacy","legacy","0","incongruent","uniform","1","undefined","1","s","0","0","0","85","85","85","0","85","0","85","0","0","0","85","85","85","Sat Sep  8 22:40:04 2018","600","The main experiment item","yes","FlankerTaskAHC.osexp","/Users/abigailchristie/Desktop/Faulkenberry","no","mono","no","18","no","white","no","yes","768","legacy","5","79","/Users/abigailchristie/Desktop/Faulkenberry/AHC03.csv","legacy","Kafkaesque Koffka","3.2.5","0","s","NA","s","s","NA","s","363","NA","31506","137889","NA","363","2","legacy","1024","2","48000","-16","experiment","HHSHH","3","odd","33938","309892","NA","317582","318781","312185","2410","NA","NA","318671","2422","172000","NA","318781","319147","318663","Flanker Task-AHC","81","41366","86","yes","1024"
"94.2528735632","94.2528735632","479.67816092","479.67816092","black","legacy","legacy","legacy","0","congruent","uniform","1","undefined","1","h","0","0","0","86","86","86","0","86","0","86","0","0","0","86","86","86","Sat Sep  8 22:40:04 2018","600","The main experiment item","yes","FlankerTaskAHC.osexp","/Users/abigailchristie/Desktop/Faulkenberry","no","mono","no","18","no","white","no","yes","768","legacy","6","79","/Users/abigailchristie/Desktop/Faulkenberry/AHC03.csv","legacy","Kafkaesque Koffka","3.2.5","0","h","NA","s","s","NA","h","366","NA","31506","137889","NA","366","2","legacy","1024","2","48000","-16","experiment","HHHHH","3","odd","33938","309892","NA","319161","320363","312185","2410","NA","NA","320255","2422","172000","NA","320363","320732","320246","Flanker Task-AHC","82","41732","87","yes","1024"
"94.3181818182","94.3181818182","479.170454545","479.170454545","black","legacy","legacy","legacy","0","congruent","uniform","1","undefined","1","s","0","0","0","87","87","87","0","87","0","87","0","0","0","87","87","87","Sat Sep  8 22:40:04 2018","600","The main experiment item","yes","FlankerTaskAHC.osexp","/Users/abigailchristie/Desktop/Faulkenberry","no","mono","no","18","no","white","no","yes","768","legacy","7","79","/Users/abigailchristie/Desktop/Faulkenberry/AHC03.csv","legacy","Kafkaesque Koffka","3.2.5","0","s","NA","s","s","NA","s","435","NA","31506","137889","NA","435","2","legacy","1024","2","48000","-16","experiment","SSSSS","3","odd","33938","309892","NA","320744","321942","312185","2410","NA","NA","321833","2422","172000","NA","321942","322379","321825","Flanker Task-AHC","83","42167","88","yes","1024"
"93.2584269663","93.2584269663","477.539325843","477.539325843","black","legacy","legacy","legacy","0","incongruent","uniform","0","undefined","0","h","0","0","0","88","88","88","0","88","0","88","0","0","0","88","88","88","Sat Sep  8 22:40:04 2018","600","The main experiment item","yes","FlankerTaskAHC.osexp","/Users/abigailchristie/Desktop/Faulkenberry","no","mono","no","18","no","white","no","yes","768","legacy","8","79","/Users/abigailchristie/Desktop/Faulkenberry/AHC03.csv","legacy","Kafkaesque Koffka","3.2.5","0","s","NA","s","s","NA","s","334","NA","31506","137889","NA","334","2","legacy","1024","2","48000","-16","experiment","SSHSS","3","odd","33938","309892","NA","322392","323595","312185","2410","NA","NA","323485","2422","172000","NA","323595","323931","323477","Flanker Task-AHC","83","42501","89","yes","1024"
"93.3333333333","93.3333333333","477.388888889","477.388888889","black","legacy","legacy","legacy","0","congruent","uniform","1","undefined","1","h","0","0","0","89","89","89","0","89","0","89","0","0","0","89","89","89","Sat Sep  8 22:40:04 2018","600","The main experiment item","yes","FlankerTaskAHC.osexp","/Users/abigailchristie/Desktop/Faulkenberry","no","mono","no","18","no","white","no","yes","768","legacy","9","79","/Users/abigailchristie/Desktop/Faulkenberry/AHC03.csv","legacy","Kafkaesque Koffka","3.2.5","0","h","NA","s","s","NA","h","464","NA","31506","137889","NA","464","2","legacy","1024","2","48000","-16","experiment","HHHHH","3","odd","33938","309892","NA","324450","325648","323942","2410","NA","NA","325539","2422","172000","NA","325648","326115","325531","Flanker Task-AHC","84","42965","90","yes","1024"
"93.4065934066","93.4065934066","477.043956044","477.043956044","black","legacy","legacy","legacy","0","congruent","uniform","1","undefined","1","h","0","0","0","90","90","90","0","90","0","90","0","0","0","90","90","90","Sat Sep  8 22:40:04 2018","600","The main experiment item","yes","FlankerTaskAHC.osexp","/Users/abigailchristie/Desktop/Faulkenberry","no","mono","no","18","no","white","no","yes","768","legacy","10","79","/Users/abigailchristie/Desktop/Faulkenberry/AHC03.csv","legacy","Kafkaesque Koffka","3.2.5","0","h","NA","s","s","NA","h","446","NA","31506","137889","NA","446","2","legacy","1024","2","48000","-16","experiment","HHHHH","3","odd","33938","309892","NA","326126","327330","323942","2410","NA","NA","327220","2422","172000","NA","327330","327779","327212","Flanker Task-AHC","85","43411","91","yes","1024"
"93.4782608696","93.4782608696","476.739130435","476.739130435","black","legacy","legacy","legacy","0","congruent","uniform","1","undefined","1","h","0","0","0","91","91","91","0","91","0","91","0","0","0","91","91","91","Sat Sep  8 22:40:04 2018","600","The main experiment item","yes","FlankerTaskAHC.osexp","/Users/abigailchristie/Desktop/Faulkenberry","no","mono","no","18","no","white","no","yes","768","legacy","11","79","/Users/abigailchristie/Desktop/Faulkenberry/AHC03.csv","legacy","Kafkaesque Koffka","3.2.5","0","h","NA","s","s","NA","h","449","NA","31506","137889","NA","449","2","legacy","1024","2","48000","-16","experiment","HHHHH","3","odd","33938","309892","NA","327791","328991","323942","2410","NA","NA","328881","2422","172000","NA","328991","329443","328873","Flanker Task-AHC","86","43860","92","yes","1024"
"92.4731182796","92.4731182796","476.107526882","476.107526882","black","legacy","legacy","legacy","0","incongruent","uniform","0","undefined","0","h","0","0","0","92","92","92","0","92","0","92","0","0","0","92","92","92","Sat Sep  8 22:40:04 2018","600","The main experiment item","yes","FlankerTaskAHC.osexp","/Users/abigailchristie/Desktop/Faulkenberry","no","mono","no","18","no","white","no","yes","768","legacy","12","79","/Users/abigailchristie/Desktop/Faulkenberry/AHC03.csv","legacy","Kafkaesque Koffka","3.2.5","0","s","NA","s","s","NA","s","418","NA","31506","137889","NA","418","2","legacy","1024","2","48000","-16","experiment","SSHSS","3","odd","33938","309892","NA","329455","330653","323942","2410","NA","NA","330544","2422","172000","NA","330653","331075","330536","Flanker Task-AHC","86","44278","93","yes","1024"
"92.5531914894","92.5531914894","477","477","black","legacy","legacy","legacy","0","congruent","uniform","1","undefined","1","s","0","0","0","93","93","93","0","93","0","93","0","0","0","93","93","93","Sat Sep  8 22:40:04 2018","600","The main experiment item","yes","FlankerTaskAHC.osexp","/Users/abigailchristie/Desktop/Faulkenberry","no","mono","no","18","no","white","no","yes","768","legacy","13","79","/Users/abigailchristie/Desktop/Faulkenberry/AHC03.csv","legacy","Kafkaesque Koffka","3.2.5","0","s","NA","s","s","NA","s","560","NA","31506","137889","NA","560","2","legacy","1024","2","48000","-16","experiment","SSSSS","3","odd","33938","309892","NA","331594","332792","331086","2410","NA","NA","332683","2422","172000","NA","332792","333355","332675","Flanker Task-AHC","87","44838","94","yes","1024"
"92.6315789474","92.6315789474","475.789473684","475.789473684","black","legacy","legacy","legacy","0","congruent","uniform","1","undefined","1","s","0","0","0","94","94","94","0","94","0","94","0","0","0","94","94","94","Sat Sep  8 22:40:04 2018","600","The main experiment item","yes","FlankerTaskAHC.osexp","/Users/abigailchristie/Desktop/Faulkenberry","no","mono","no","18","no","white","no","yes","768","legacy","14","79","/Users/abigailchristie/Desktop/Faulkenberry/AHC03.csv","legacy","Kafkaesque Koffka","3.2.5","0","s","NA","s","s","NA","s","362","NA","31506","137889","NA","362","2","legacy","1024","2","48000","-16","experiment","SSSSS","3","odd","33938","309892","NA","333368","334566","331086","2410","NA","NA","334457","2422","172000","NA","334566","334931","334449","Flanker Task-AHC","88","45200","95","yes","1024"
"92.7083333333","92.7083333333","474.385416667","474.385416667","black","legacy","legacy","legacy","0","congruent","uniform","1","undefined","1","s","0","0","0","95","95","95","0","95","0","95","0","0","0","95","95","95","Sat Sep  8 22:40:04 2018","600","The main experiment item","yes","FlankerTaskAHC.osexp","/Users/abigailchristie/Desktop/Faulkenberry","no","mono","no","18","no","white","no","yes","768","legacy","15","79","/Users/abigailchristie/Desktop/Faulkenberry/AHC03.csv","legacy","Kafkaesque Koffka","3.2.5","0","s","NA","s","s","NA","s","341","NA","31506","137889","NA","341","2","legacy","1024","2","48000","-16","experiment","SSSSS","3","odd","33938","309892","NA","334942","336138","331086","2410","NA","NA","336029","2422","172000","NA","336139","336483","336022","Flanker Task-AHC","89","45541","96","yes","1024"
"92.7835051546","92.7835051546","473.927835052","473.927835052","black","legacy","legacy","legacy","0","incongruent","uniform","1","undefined","1","h","0","0","0","96","96","96","0","96","0","96","0","0","0","96","96","96","Sat Sep  8 22:40:04 2018","600","The main experiment item","yes","FlankerTaskAHC.osexp","/Users/abigailchristie/Desktop/Faulkenberry","no","mono","no","18","no","white","no","yes","768","legacy","16","79","/Users/abigailchristie/Desktop/Faulkenberry/AHC03.csv","legacy","Kafkaesque Koffka","3.2.5","0","h","NA","s","s","NA","h","430","NA","31506","137889","NA","430","2","legacy","1024","2","48000","-16","experiment","SSHSS","3","odd","33938","309892","NA","336496","337697","331086","2410","NA","NA","337588","2422","172000","NA","337697","338130","337581","Flanker Task-AHC","90","45971","97","yes","1024"
"92.8571428571","92.8571428571","473.102040816","473.102040816","black","legacy","legacy","legacy","0","congruent","uniform","1","undefined","1","h","0","0","0","97","97","97","0","97","0","97","0","0","0","97","97","97","Sat Sep  8 22:40:04 2018","600","The main experiment item","yes","FlankerTaskAHC.osexp","/Users/abigailchristie/Desktop/Faulkenberry","no","mono","no","18","no","white","no","yes","768","legacy","17","79","/Users/abigailchristie/Desktop/Faulkenberry/AHC03.csv","legacy","Kafkaesque Koffka","3.2.5","0","h","NA","s","s","NA","h","393","NA","31506","137889","NA","393","2","legacy","1024","2","48000","-16","experiment","HHHHH","3","odd","33938","309892","NA","338142","339342","331086","2410","NA","NA","339233","2422","172000","NA","339343","339739","339224","Flanker Task-AHC","91","46364","98","yes","1024"
"92.9292929293","92.9292929293","472.474747475","472.474747475","black","legacy","legacy","legacy","0","incongruent","uniform","1","undefined","1","s","0","0","0","98","98","98","0","98","0","98","0","0","0","98","98","98","Sat Sep  8 22:40:04 2018","600","The main experiment item","yes","FlankerTaskAHC.osexp","/Users/abigailchristie/Desktop/Faulkenberry","no","mono","no","18","no","white","no","yes","768","legacy","18","79","/Users/abigailchristie/Desktop/Faulkenberry/AHC03.csv","legacy","Kafkaesque Koffka","3.2.5","0","s","NA","s","s","NA","s","411","NA","31506","137889","NA","411","2","legacy","1024","2","48000","-16","experiment","HHSHH","3","odd","33938","309892","NA","339751","340949","331086","2410","NA","NA","340840","2422","172000","NA","340949","341362","340832","Flanker Task-AHC","92","46775","99","yes","1024"
"93","93","472.09","472.09","black","legacy","legacy","legacy","0","congruent","uniform","1","undefined","1","h","0","0","0","99","99","99","0","99","0","99","0","0","0","99","99","99","Sat Sep  8 22:40:04 2018","600","The main experiment item","yes","FlankerTaskAHC.osexp","/Users/abigailchristie/Desktop/Faulkenberry","no","mono","no","18","no","white","no","yes","768","legacy","19","79","/Users/abigailchristie/Desktop/Faulkenberry/AHC03.csv","legacy","Kafkaesque Koffka","3.2.5","0","h","NA","s","s","NA","h","434","NA","31506","137889","NA","434","2","legacy","1024","2","48000","-16","experiment","HHHHH","3","odd","33938","309892","NA","341374","342573","331086","2410","NA","NA","342464","2422","172000","NA","342573","343010","342457","Flanker Task-AHC","93","47209","100","yes","1024"
"93.0693069307","93.0693069307","472.03960396","472.03960396","black","legacy","legacy","legacy","0","incongruent","uniform","1","undefined","1","h","0","0","0","100","100","100","0","100","0","100","0","0","0","100","100","100","Sat Sep  8 22:40:04 2018","600","The main experiment item","yes","FlankerTaskAHC.osexp","/Users/abigailchristie/Desktop/Faulkenberry","no","mono","no","18","no","white","no","yes","768","legacy","20","79","/Users/abigailchristie/Desktop/Faulkenberry/AHC03.csv","legacy","Kafkaesque Koffka","3.2.5","0","h","NA","s","s","NA","h","467","NA","31506","137889","NA","467","2","legacy","1024","2","48000","-16","experiment","SSHSS","3","odd","33938","309892","NA","343021","344221","331086","2410","NA","NA","344111","2422","172000","NA","344221","344690","344102","Flanker Task-AHC","94","47676","101","yes","1024"
"93.137254902","93.137254902","471.617647059","471.617647059","black","legacy","legacy","legacy","0","congruent","uniform","1","undefined","1","s","0","0","0","101","101","101","0","101","0","101","0","0","0","101","101","101","Sat Sep  8 22:40:04 2018","600","The main experiment item","yes","FlankerTaskAHC.osexp","/Users/abigailchristie/Desktop/Faulkenberry","no","mono","no","18","no","white","no","yes","768","legacy","21","79","/Users/abigailchristie/Desktop/Faulkenberry/AHC03.csv","legacy","Kafkaesque Koffka","3.2.5","0","s","NA","s","s","NA","s","429","NA","31506","137889","NA","429","2","legacy","1024","2","48000","-16","experiment","SSSSS","3","odd","33938","309892","NA","344702","345898","331086","2410","NA","NA","345789","2422","172000","NA","345899","346331","345782","Flanker Task-AHC","95","48105","102","yes","1024"
"93.2038834951","93.2038834951","471.252427184","471.252427184","black","legacy","legacy","legacy","0","incongruent","uniform","1","undefined","1","h","0","0","0","102","102","102","0","102","0","102","0","0","0","102","102","102","Sat Sep  8 22:40:04 2018","600","The main experiment item","yes","FlankerTaskAHC.osexp","/Users/abigailchristie/Desktop/Faulkenberry","no","mono","no","18","no","white","no","yes","768","legacy","22","79","/Users/abigailchristie/Desktop/Faulkenberry/AHC03.csv","legacy","Kafkaesque Koffka","3.2.5","0","h","NA","s","s","NA","h","434","NA","31506","137889","NA","434","2","legacy","1024","2","48000","-16","experiment","SSHSS","3","odd","33938","309892","NA","346343","347540","331086","2410","NA","NA","347432","2422","172000","NA","347541","347979","347425","Flanker Task-AHC","96","48539","103","yes","1024"
"93.2692307692","93.2692307692","470.375","470.375","black","legacy","legacy","legacy","0","incongruent","uniform","1","undefined","1","h","0","0","0","103","103","103","0","103","0","103","0","0","0","103","103","103","Sat Sep  8 22:40:04 2018","600","The main experiment item","yes","FlankerTaskAHC.osexp","/Users/abigailchristie/Desktop/Faulkenberry","no","mono","no","18","no","white","no","yes","768","legacy","23","79","/Users/abigailchristie/Desktop/Faulkenberry/AHC03.csv","legacy","Kafkaesque Koffka","3.2.5","0","h","NA","s","s","NA","h","380","NA","31506","137889","NA","380","2","legacy","1024","2","48000","-16","experiment","SSHSS","3","odd","33938","309892","NA","347991","349187","331086","2410","NA","NA","349077","2422","172000","NA","349187","349571","349070","Flanker Task-AHC","97","48919","104","yes","1024"
"93.3333333333","93.3333333333","470.057142857","470.057142857","black","legacy","legacy","legacy","0","incongruent","uniform","1","undefined","1","s","0","0","0","104","104","104","0","104","0","104","0","0","0","104","104","104","Sat Sep  8 22:40:04 2018","600","The main experiment item","yes","FlankerTaskAHC.osexp","/Users/abigailchristie/Desktop/Faulkenberry","no","mono","no","18","no","white","no","yes","768","legacy","24","79","/Users/abigailchristie/Desktop/Faulkenberry/AHC03.csv","legacy","Kafkaesque Koffka","3.2.5","0","s","NA","s","s","NA","s","437","NA","31506","137889","NA","437","2","legacy","1024","2","48000","-16","experiment","HHSHH","3","odd","33938","309892","NA","349584","350786","331086","2410","NA","NA","350677","2422","172000","NA","350786","351227","350669","Flanker Task-AHC","98","49356","105","yes","1024"
"93.3962264151","93.3962264151","469.037735849","469.037735849","black","legacy","legacy","legacy","0","congruent","uniform","1","undefined","1","h","0","0","0","105","105","105","0","105","0","105","0","0","0","105","105","105","Sat Sep  8 22:40:04 2018","600","The main experiment item","yes","FlankerTaskAHC.osexp","/Users/abigailchristie/Desktop/Faulkenberry","no","mono","no","18","no","white","no","yes","768","legacy","25","79","/Users/abigailchristie/Desktop/Faulkenberry/AHC03.csv","legacy","Kafkaesque Koffka","3.2.5","0","h","NA","s","s","NA","h","362","NA","31506","137889","NA","362","2","legacy","1024","2","48000","-16","experiment","HHHHH","3","odd","33938","309892","NA","351238","352436","331086","2410","NA","NA","352327","2422","172000","NA","352437","352803","352319","Flanker Task-AHC","99","49718","106","yes","1024"
"93.4579439252","93.4579439252","468.710280374","468.710280374","black","legacy","legacy","legacy","0","incongruent","uniform","1","undefined","1","h","0","0","0","106","106","106","0","106","0","106","0","0","0","106","106","106","Sat Sep  8 22:40:04 2018","600","The main experiment item","yes","FlankerTaskAHC.osexp","/Users/abigailchristie/Desktop/Faulkenberry","no","mono","no","18","no","white","no","yes","768","legacy","26","79","/Users/abigailchristie/Desktop/Faulkenberry/AHC03.csv","legacy","Kafkaesque Koffka","3.2.5","0","h","NA","s","s","NA","h","434","NA","31506","137889","NA","434","2","legacy","1024","2","48000","-16","experiment","SSHSS","3","odd","33938","309892","NA","352815","354013","331086","2410","NA","NA","353904","2422","172000","NA","354013","354450","353896","Flanker Task-AHC","100","50152","107","yes","1024"
"93.5185185185","93.5185185185","468.453703704","468.453703704","black","legacy","legacy","legacy","0","congruent","uniform","1","undefined","1","h","0","0","0","107","107","107","0","107","0","107","0","0","0","107","107","107","Sat Sep  8 22:40:04 2018","600","The main experiment item","yes","FlankerTaskAHC.osexp","/Users/abigailchristie/Desktop/Faulkenberry","no","mono","no","18","no","white","no","yes","768","legacy","27","79","/Users/abigailchristie/Desktop/Faulkenberry/AHC03.csv","legacy","Kafkaesque Koffka","3.2.5","0","h","NA","s","s","NA","h","441","NA","31506","137889","NA","441","2","legacy","1024","2","48000","-16","experiment","HHHHH","3","odd","33938","309892","NA","354462","355661","331086","2410","NA","NA","355551","2422","172000","NA","355661","356106","355543","Flanker Task-AHC","101","50593","108","yes","1024"
"93.5779816514","93.5779816514","467.926605505","467.926605505","black","legacy","legacy","legacy","0","incongruent","uniform","1","undefined","1","h","0","0","0","108","108","108","0","108","0","108","0","0","0","108","108","108","Sat Sep  8 22:40:04 2018","600","The main experiment item","yes","FlankerTaskAHC.osexp","/Users/abigailchristie/Desktop/Faulkenberry","no","mono","no","18","no","white","no","yes","768","legacy","28","79","/Users/abigailchristie/Desktop/Faulkenberry/AHC03.csv","legacy","Kafkaesque Koffka","3.2.5","0","h","NA","s","s","NA","h","411","NA","31506","137889","NA","411","2","legacy","1024","2","48000","-16","experiment","SSHSS","3","odd","33938","309892","NA","356116","357315","331086","2410","NA","NA","357206","2422","172000","NA","357316","357729","357198","Flanker Task-AHC","102","51004","109","yes","1024"
"93.6363636364","93.6363636364","468.281818182","468.281818182","black","legacy","legacy","legacy","0","incongruent","uniform","1","undefined","1","s","0","0","0","109","109","109","0","109","0","109","0","0","0","109","109","109","Sat Sep  8 22:40:04 2018","600","The main experiment item","yes","FlankerTaskAHC.osexp","/Users/abigailchristie/Desktop/Faulkenberry","no","mono","no","18","no","white","no","yes","768","legacy","29","79","/Users/abigailchristie/Desktop/Faulkenberry/AHC03.csv","legacy","Kafkaesque Koffka","3.2.5","0","s","NA","s","s","NA","s","507","NA","31506","137889","NA","507","2","legacy","1024","2","48000","-16","experiment","HHSHH","3","odd","33938","309892","NA","357742","358940","331086","2410","NA","NA","358831","2422","172000","NA","358940","359452","358824","Flanker Task-AHC","103","51511","110","yes","1024"
"93.6936936937","93.6936936937","468.333333333","468.333333333","black","legacy","legacy","legacy","0","congruent","uniform","1","undefined","1","h","0","0","0","110","110","110","0","110","0","110","0","0","0","110","110","110","Sat Sep  8 22:40:04 2018","600","The main experiment item","yes","FlankerTaskAHC.osexp","/Users/abigailchristie/Desktop/Faulkenberry","no","mono","no","18","no","white","no","yes","768","legacy","30","79","/Users/abigailchristie/Desktop/Faulkenberry/AHC03.csv","legacy","Kafkaesque Koffka","3.2.5","0","h","NA","s","s","NA","h","474","NA","31506","137889","NA","474","2","legacy","1024","2","48000","-16","experiment","HHHHH","3","odd","33938","309892","NA","359463","360660","331086","2410","NA","NA","360551","2422","172000","NA","360660","361137","360543","Flanker Task-AHC","104","51985","111","yes","1024"
"93.75","93.75","467.767857143","467.767857143","black","legacy","legacy","legacy","0","incongruent","uniform","1","undefined","1","s","0","0","0","111","111","111","0","111","0","111","0","0","0","111","111","111","Sat Sep  8 22:40:04 2018","600","The main experiment item","yes","FlankerTaskAHC.osexp","/Users/abigailchristie/Desktop/Faulkenberry","no","mono","no","18","no","white","no","yes","768","legacy","31","79","/Users/abigailchristie/Desktop/Faulkenberry/AHC03.csv","legacy","Kafkaesque Koffka","3.2.5","0","s","NA","s","s","NA","s","405","NA","31506","137889","NA","405","2","legacy","1024","2","48000","-16","experiment","HHSHH","3","odd","33938","309892","NA","361149","362346","331086","2410","NA","NA","362238","2422","172000","NA","362346","362753","362230","Flanker Task-AHC","105","52390","112","yes","1024"
"93.8053097345","93.8053097345","467.761061947","467.761061947","black","legacy","legacy","legacy","0","incongruent","uniform","1","undefined","1","s","0","0","0","112","112","112","0","112","0","112","0","0","0","112","112","112","Sat Sep  8 22:40:04 2018","600","The main experiment item","yes","FlankerTaskAHC.osexp","/Users/abigailchristie/Desktop/Faulkenberry","no","mono","no","18","no","white","no","yes","768","legacy","32","79","/Users/abigailchristie/Desktop/Faulkenberry/AHC03.csv","legacy","Kafkaesque Koffka","3.2.5","0","s","NA","s","s","NA","s","467","NA","31506","137889","NA","467","2","legacy","1024","2","48000","-16","experiment","HHSHH","3","odd","33938","309892","NA","362765","363963","331086","2410","NA","NA","363854","2422","172000","NA","363964","364434","363846","Flanker Task-AHC","106","52857","113","yes","1024"
"92.9824561404","92.9824561404","466.894736842","466.894736842","black","legacy","legacy","legacy","0","incongruent","uniform","0","undefined","0","s","0","0","0","113","113","113","0","113","0","113","0","0","0","113","113","113","Sat Sep  8 22:40:04 2018","600","The main experiment item","yes","FlankerTaskAHC.osexp","/Users/abigailchristie/Desktop/Faulkenberry","no","mono","no","18","no","white","no","yes","768","legacy","33","79","/Users/abigailchristie/Desktop/Faulkenberry/AHC03.csv","legacy","Kafkaesque Koffka","3.2.5","0","h","NA","s","s","NA","h","369","NA","31506","137889","NA","369","2","legacy","1024","2","48000","-16","experiment","HHSHH","3","odd","33938","309892","NA","364446","365645","331086","2410","NA","NA","365536","2422","172000","NA","365645","366017","365529","Flanker Task-AHC","106","53226","114","yes","1024"
"93.0434782609","93.0434782609","465.817391304","465.817391304","black","legacy","legacy","legacy","0","congruent","uniform","1","undefined","1","h","0","0","0","114","114","114","0","114","0","114","0","0","0","114","114","114","Sat Sep  8 22:40:04 2018","600","The main experiment item","yes","FlankerTaskAHC.osexp","/Users/abigailchristie/Desktop/Faulkenberry","no","mono","no","18","no","white","no","yes","768","legacy","34","79","/Users/abigailchristie/Desktop/Faulkenberry/AHC03.csv","legacy","Kafkaesque Koffka","3.2.5","0","h","NA","s","s","NA","h","343","NA","31506","137889","NA","343","2","legacy","1024","2","48000","-16","experiment","HHHHH","3","odd","33938","309892","NA","366537","367735","366028","2410","NA","NA","367626","2422","172000","NA","367735","368081","367618","Flanker Task-AHC","107","53569","115","yes","1024"
"93.1034482759","93.1034482759","465.620689655","465.620689655","black","legacy","legacy","legacy","0","congruent","uniform","1","undefined","1","s","0","0","0","115","115","115","0","115","0","115","0","0","0","115","115","115","Sat Sep  8 22:40:04 2018","600","The main experiment item","yes","FlankerTaskAHC.osexp","/Users/abigailchristie/Desktop/Faulkenberry","no","mono","no","18","no","white","no","yes","768","legacy","35","79","/Users/abigailchristie/Desktop/Faulkenberry/AHC03.csv","legacy","Kafkaesque Koffka","3.2.5","0","s","NA","s","s","NA","s","443","NA","31506","137889","NA","443","2","legacy","1024","2","48000","-16","experiment","SSSSS","3","odd","33938","309892","NA","368093","369291","366028","2410","NA","NA","369182","2422","172000","NA","369292","369738","369174","Flanker Task-AHC","108","54012","116","yes","1024"
"93.1623931624","93.1623931624","465.205128205","465.205128205","black","legacy","legacy","legacy","0","incongruent","uniform","1","undefined","1","s","0","0","0","116","116","116","0","116","0","116","0","0","0","116","116","116","Sat Sep  8 22:40:04 2018","600","The main experiment item","yes","FlankerTaskAHC.osexp","/Users/abigailchristie/Desktop/Faulkenberry","no","mono","no","18","no","white","no","yes","768","legacy","36","79","/Users/abigailchristie/Desktop/Faulkenberry/AHC03.csv","legacy","Kafkaesque Koffka","3.2.5","0","s","NA","s","s","NA","s","417","NA","31506","137889","NA","417","2","legacy","1024","2","48000","-16","experiment","HHSHH","3","odd","33938","309892","NA","369751","370950","366028","2410","NA","NA","370841","2422","172000","NA","370950","371369","370832","Flanker Task-AHC","109","54429","117","yes","1024"
"93.2203389831","93.2203389831","465.525423729","465.525423729","black","legacy","legacy","legacy","0","incongruent","uniform","1","undefined","1","h","0","0","0","117","117","117","0","117","0","117","0","0","0","117","117","117","Sat Sep  8 22:40:04 2018","600","The main experiment item","yes","FlankerTaskAHC.osexp","/Users/abigailchristie/Desktop/Faulkenberry","no","mono","no","18","no","white","no","yes","768","legacy","37","79","/Users/abigailchristie/Desktop/Faulkenberry/AHC03.csv","legacy","Kafkaesque Koffka","3.2.5","0","h","NA","s","s","NA","h","503","NA","31506","137889","NA","503","2","legacy","1024","2","48000","-16","experiment","SSHSS","3","odd","33938","309892","NA","371380","372582","366028","2410","NA","NA","372473","2422","172000","NA","372582","373089","372464","Flanker Task-AHC","110","54932","118","yes","1024"
"93.2773109244","93.2773109244","464.865546218","464.865546218","black","legacy","legacy","legacy","0","congruent","uniform","1","undefined","1","h","0","0","0","118","118","118","0","118","0","118","0","0","0","118","118","118","Sat Sep  8 22:40:04 2018","600","The main experiment item","yes","FlankerTaskAHC.osexp","/Users/abigailchristie/Desktop/Faulkenberry","no","mono","no","18","no","white","no","yes","768","legacy","38","79","/Users/abigailchristie/Desktop/Faulkenberry/AHC03.csv","legacy","Kafkaesque Koffka","3.2.5","0","h","NA","s","s","NA","h","387","NA","31506","137889","NA","387","2","legacy","1024","2","48000","-16","experiment","HHHHH","3","odd","33938","309892","NA","373099","374299","366028","2410","NA","NA","374190","2422","172000","NA","374299","374690","374182","Flanker Task-AHC","111","55319","119","yes","1024"
"93.3333333333","93.3333333333","464.225","464.225","black","legacy","legacy","legacy","0","congruent","uniform","1","undefined","1","s","0","0","0","119","119","119","0","119","0","119","0","0","0","119","119","119","Sat Sep  8 22:40:04 2018","600","The main experiment item","yes","FlankerTaskAHC.osexp","/Users/abigailchristie/Desktop/Faulkenberry","no","mono","no","18","no","white","no","yes","768","legacy","39","79","/Users/abigailchristie/Desktop/Faulkenberry/AHC03.csv","legacy","Kafkaesque Koffka","3.2.5","0","s","NA","s","s","NA","s","388","NA","31506","137889","NA","388","2","legacy","1024","2","48000","-16","experiment","SSSSS","3","odd","33938","309892","NA","374701","375898","366028","2410","NA","NA","375789","2422","172000","NA","375898","376290","375781","Flanker Task-AHC","112","55707","120","yes","1024"
