condition,stimulus,acc,accuracy,average_response_time,avg_rt,background,canvas_backend,clock_backend,color_backend,compensation,coordinates,correct,correct_instructions1,correct_keyboard_response,correct_response,count_Block1,count_Block2,count_Block3,count_Faster,count_ISI,count_Sequence,count_errorFeedback,count_experiment,count_finish,count_fixation,count_instructions1,count_instructions2,count_instructions3,count_keyboard_response,count_logger,count_stimulus,datetime,deadline,description,disable_garbage_collection,experiment_file,experiment_path,font_bold,font_family,font_italic,font_size,font_underline,foreground,form_clicks,fullscreen,height,keyboard_backend,live_row,live_row_Block1,logfile,mouse_backend,opensesame_codename,opensesame_version,repeat_cycle,response,response_finish,response_instructions1,response_instructions2,response_instructions3,response_keyboard_response,response_time,response_time_finish,response_time_instructions1,response_time_instructions2,response_time_instructions3,response_time_keyboard_response,round_decimals,sampler_backend,sound_buf_size,sound_channels,sound_freq,sound_sample_size,start,subject_nr,subject_parity,time_Block1,time_Block2,time_Block3,time_Faster,time_ISI,time_Sequence,time_errorFeedback,time_experiment,time_finish,time_fixation,time_instructions1,time_instructions2,time_instructions3,time_keyboard_response,time_logger,time_stimulus,title,total_correct,total_response_time,total_responses,uniform_coordinates,width
Incongruent,HHSHH,100,100,768,768,black,legacy,legacy,legacy,0,uniform,1,undefined,1,s,0,0,0,0,0,0,0,0,0,0,0,0,0,0,0,0,9/9/18 20:49,1500,The main experiment item,yes,FlankerTask.osexp,E:/,no,mono,no,18,no,white,no,yes,768,legacy,0,0,E:/kg-subject-3.csv,legacy,Kafkaesque Koffka,3.2.5,0,s,NA,s,NA,NA,s,768,NA,1999,NA,NA,768,2,legacy,1024,2,48000,-16,experiment,3,odd,4937,NA,NA,NA,NA,5164,NA,2927,NA,5168,2935,NA,NA,5282,6051,5281,Flanker Task,1,768,1,yes,1024
Congruent,HHHHH,100,100,620.5,620.5,black,legacy,legacy,legacy,0,uniform,1,undefined,1,h,0,0,0,1,1,1,1,0,0,1,0,0,0,1,1,1,9/9/18 20:49,1500,The main experiment item,yes,FlankerTask.osexp,E:/,no,mono,no,18,no,white,no,yes,768,legacy,1,1,E:/kg-subject-3.csv,legacy,Kafkaesque Koffka,3.2.5,0,h,NA,s,NA,NA,h,473,NA,1999,NA,NA,473,2,legacy,1024,2,48000,-16,experiment,3,odd,4937,NA,NA,NA,6088,7300,NA,2927,NA,7306,2935,NA,NA,7410,7884,7410,Flanker Task,2,1241,2,yes,1024
Incongruent,HHSHH,100,100,534.6666667,534.6666667,black,legacy,legacy,legacy,0,uniform,1,undefined,1,s,0,0,0,2,2,2,2,0,0,2,0,0,0,2,2,2,9/9/18 20:49,1500,The main experiment item,yes,FlankerTask.osexp,E:/,no,mono,no,18,no,white,no,yes,768,legacy,2,2,E:/kg-subject-3.csv,legacy,Kafkaesque Koffka,3.2.5,0,s,NA,s,NA,NA,s,363,NA,1999,NA,NA,363,2,legacy,1024,2,48000,-16,experiment,3,odd,4937,NA,NA,NA,7899,9128,NA,2927,NA,9134,2935,NA,NA,9238,9602,9238,Flanker Task,3,1604,3,yes,1024
Congruent,HHHHH,100,100,499.75,499.75,black,legacy,legacy,legacy,0,uniform,1,undefined,1,h,0,0,0,3,3,3,3,0,0,3,0,0,0,3,3,3,9/9/18 20:49,1500,The main experiment item,yes,FlankerTask.osexp,E:/,no,mono,no,18,no,white,no,yes,768,legacy,3,3,E:/kg-subject-3.csv,legacy,Kafkaesque Koffka,3.2.5,0,h,NA,s,NA,NA,h,395,NA,1999,NA,NA,395,2,legacy,1024,2,48000,-16,experiment,3,odd,4937,NA,NA,NA,9616,10806,NA,2927,NA,10812,2935,NA,NA,10924,11320,10924,Flanker Task,4,1999,4,yes,1024
Congruent,SSSSS,100,100,486.8,486.8,black,legacy,legacy,legacy,0,uniform,1,undefined,1,s,0,0,0,4,4,4,4,0,0,4,0,0,0,4,4,4,9/9/18 20:49,1500,The main experiment item,yes,FlankerTask.osexp,E:/,no,mono,no,18,no,white,no,yes,768,legacy,4,4,E:/kg-subject-3.csv,legacy,Kafkaesque Koffka,3.2.5,0,s,NA,s,NA,NA,s,435,NA,1999,NA,NA,435,2,legacy,1024,2,48000,-16,experiment,3,odd,4937,NA,NA,NA,11333,12535,NA,2927,NA,12540,2935,NA,NA,12653,13089,12653,Flanker Task,5,2434,5,yes,1024
Congruent,HHHHH,100,100,478.6666667,478.6666667,black,legacy,legacy,legacy,0,uniform,1,undefined,1,h,0,0,0,5,5,5,5,0,0,5,0,0,0,5,5,5,9/9/18 20:49,1500,The main experiment item,yes,FlankerTask.osexp,E:/,no,mono,no,18,no,white,no,yes,768,legacy,5,5,E:/kg-subject-3.csv,legacy,Kafkaesque Koffka,3.2.5,0,h,NA,s,NA,NA,h,438,NA,1999,NA,NA,438,2,legacy,1024,2,48000,-16,experiment,3,odd,4937,NA,NA,NA,13103,14300,NA,2927,NA,14306,2935,NA,NA,14418,14857,14418,Flanker Task,6,2872,6,yes,1024
Incongruent,HHSHH,100,100,468.7142857,468.7142857,black,legacy,legacy,legacy,0,uniform,1,undefined,1,s,0,0,0,6,6,6,6,0,0,6,0,0,0,6,6,6,9/9/18 20:49,1500,The main experiment item,yes,FlankerTask.osexp,E:/,no,mono,no,18,no,white,no,yes,768,legacy,6,6,E:/kg-subject-3.csv,legacy,Kafkaesque Koffka,3.2.5,0,s,NA,s,NA,NA,s,409,NA,1999,NA,NA,409,2,legacy,1024,2,48000,-16,experiment,3,odd,4937,NA,NA,NA,14873,16082,NA,2927,NA,16088,2935,NA,NA,16191,16601,16191,Flanker Task,7,3281,7,yes,1024
Incongruent,SSHSS,100,100,459.625,459.625,black,legacy,legacy,legacy,0,uniform,1,undefined,1,h,0,0,0,7,7,7,7,0,0,7,0,0,0,7,7,7,9/9/18 20:49,1500,The main experiment item,yes,FlankerTask.osexp,E:/,no,mono,no,18,no,white,no,yes,768,legacy,7,7,E:/kg-subject-3.csv,legacy,Kafkaesque Koffka,3.2.5,0,h,NA,s,NA,NA,h,396,NA,1999,NA,NA,396,2,legacy,1024,2,48000,-16,experiment,3,odd,4937,NA,NA,NA,16615,17812,NA,2927,NA,17817,2935,NA,NA,17922,18319,17922,Flanker Task,8,3677,8,yes,1024
Incongruent,HHSHH,100,100,449.5555556,449.5555556,black,legacy,legacy,legacy,0,uniform,1,undefined,1,s,0,0,0,8,8,8,8,0,0,8,0,0,0,8,8,8,9/9/18 20:49,1500,The main experiment item,yes,FlankerTask.osexp,E:/,no,mono,no,18,no,white,no,yes,768,legacy,8,8,E:/kg-subject-3.csv,legacy,Kafkaesque Koffka,3.2.5,0,s,NA,s,NA,NA,s,369,NA,1999,NA,NA,369,2,legacy,1024,2,48000,-16,experiment,3,odd,4937,NA,NA,NA,18333,19537,NA,2927,NA,19542,2935,NA,NA,19654,20025,19654,Flanker Task,9,4046,9,yes,1024
Incongruent,SSHSS,90,90,440.9,440.9,black,legacy,legacy,legacy,0,uniform,0,undefined,0,h,0,0,0,9,9,9,9,0,0,9,0,0,0,9,9,9,9/9/18 20:49,1500,The main experiment item,yes,FlankerTask.osexp,E:/,no,mono,no,18,no,white,no,yes,768,legacy,9,9,E:/kg-subject-3.csv,legacy,Kafkaesque Koffka,3.2.5,0,s,NA,s,NA,NA,s,363,NA,1999,NA,NA,363,2,legacy,1024,2,48000,-16,experiment,3,odd,4937,NA,NA,NA,20038,21237,NA,2927,NA,21242,2935,NA,NA,21354,21719,21354,Flanker Task,9,4409,10,yes,1024
Incongruent,SSHSS,90.90909091,90.90909091,434.9090909,434.9090909,black,legacy,legacy,legacy,0,uniform,1,undefined,1,h,0,0,0,10,10,10,10,0,0,10,0,0,0,10,10,10,9/9/18 20:49,1500,The main experiment item,yes,FlankerTask.osexp,E:/,no,mono,no,18,no,white,no,yes,768,legacy,10,10,E:/kg-subject-3.csv,legacy,Kafkaesque Koffka,3.2.5,0,h,NA,s,NA,NA,h,375,NA,1999,NA,NA,375,2,legacy,1024,2,48000,-16,experiment,3,odd,4937,NA,NA,NA,22236,23453,21732,2927,NA,23459,2935,NA,NA,23563,23940,23563,Flanker Task,10,4784,11,yes,1024
Congruent,HHHHH,91.66666667,91.66666667,442.25,442.25,black,legacy,legacy,legacy,0,uniform,1,undefined,1,h,0,0,0,11,11,11,11,0,0,11,0,0,0,11,11,11,9/9/18 20:49,1500,The main experiment item,yes,FlankerTask.osexp,E:/,no,mono,no,18,no,white,no,yes,768,legacy,11,11,E:/kg-subject-3.csv,legacy,Kafkaesque Koffka,3.2.5,0,h,NA,s,NA,NA,h,523,NA,1999,NA,NA,523,2,legacy,1024,2,48000,-16,experiment,3,odd,4937,NA,NA,NA,23953,25164,21732,2927,NA,25170,2935,NA,NA,25283,25808,25282,Flanker Task,11,5307,12,yes,1024
Congruent,SSSSS,92.30769231,92.30769231,444.5384615,444.5384615,black,legacy,legacy,legacy,0,uniform,1,undefined,1,s,0,0,0,12,12,12,12,0,0,12,0,0,0,12,12,12,9/9/18 20:49,1500,The main experiment item,yes,FlankerTask.osexp,E:/,no,mono,no,18,no,white,no,yes,768,legacy,12,12,E:/kg-subject-3.csv,legacy,Kafkaesque Koffka,3.2.5,0,s,NA,s,NA,NA,s,472,NA,1999,NA,NA,472,2,legacy,1024,2,48000,-16,experiment,3,odd,4937,NA,NA,NA,25822,27025,21732,2927,NA,27030,2935,NA,NA,27142,27616,27142,Flanker Task,12,5779,13,yes,1024
Incongruent,SSHSS,85.71428571,85.71428571,438.5,438.5,black,legacy,legacy,legacy,0,uniform,0,undefined,0,h,0,0,0,13,13,13,13,0,0,13,0,0,0,13,13,13,9/9/18 20:49,1500,The main experiment item,yes,FlankerTask.osexp,E:/,no,mono,no,18,no,white,no,yes,768,legacy,13,13,E:/kg-subject-3.csv,legacy,Kafkaesque Koffka,3.2.5,0,s,NA,s,NA,NA,s,360,NA,1999,NA,NA,360,2,legacy,1024,2,48000,-16,experiment,3,odd,4937,NA,NA,NA,27629,28840,21732,2927,NA,28846,2935,NA,NA,28959,29321,28958,Flanker Task,12,6139,14,yes,1024
Congruent,SSSSS,86.66666667,86.66666667,436.2666667,436.2666667,black,legacy,legacy,legacy,0,uniform,1,undefined,1,s,0,0,0,14,14,14,14,0,0,14,0,0,0,14,14,14,9/9/18 20:49,1500,The main experiment item,yes,FlankerTask.osexp,E:/,no,mono,no,18,no,white,no,yes,768,legacy,14,14,E:/kg-subject-3.csv,legacy,Kafkaesque Koffka,3.2.5,0,s,NA,s,NA,NA,s,405,NA,1999,NA,NA,405,2,legacy,1024,2,48000,-16,experiment,3,odd,4937,NA,NA,NA,29839,31066,29336,2927,NA,31073,2935,NA,NA,31185,31592,31185,Flanker Task,13,6544,15,yes,1024
Incongruent,SSHSS,87.5,87.5,436.6875,436.6875,black,legacy,legacy,legacy,0,uniform,1,undefined,1,h,0,0,0,15,15,15,15,0,0,15,0,0,0,15,15,15,9/9/18 20:49,1500,The main experiment item,yes,FlankerTask.osexp,E:/,no,mono,no,18,no,white,no,yes,768,legacy,15,15,E:/kg-subject-3.csv,legacy,Kafkaesque Koffka,3.2.5,0,h,NA,s,NA,NA,h,443,NA,1999,NA,NA,443,2,legacy,1024,2,48000,-16,experiment,3,odd,4937,NA,NA,NA,31605,32843,29336,2927,NA,32849,2935,NA,NA,32953,33398,32952,Flanker Task,14,6987,16,yes,1024
Incongruent,SSHSS,88.23529412,88.23529412,439.2941176,439.2941176,black,legacy,legacy,legacy,0,uniform,1,undefined,1,h,0,0,0,16,16,16,16,0,0,16,0,0,0,16,16,16,9/9/18 20:49,1500,The main experiment item,yes,FlankerTask.osexp,E:/,no,mono,no,18,no,white,no,yes,768,legacy,16,16,E:/kg-subject-3.csv,legacy,Kafkaesque Koffka,3.2.5,0,h,NA,s,NA,NA,h,481,NA,1999,NA,NA,481,2,legacy,1024,2,48000,-16,experiment,3,odd,4937,NA,NA,NA,33412,34624,29336,2927,NA,34630,2935,NA,NA,34734,35216,34733,Flanker Task,15,7468,17,yes,1024
Incongruent,HHSHH,88.88888889,88.88888889,438.7777778,438.7777778,black,legacy,legacy,legacy,0,uniform,1,undefined,1,s,0,0,0,17,17,17,17,0,0,17,0,0,0,17,17,17,9/9/18 20:49,1500,The main experiment item,yes,FlankerTask.osexp,E:/,no,mono,no,18,no,white,no,yes,768,legacy,17,17,E:/kg-subject-3.csv,legacy,Kafkaesque Koffka,3.2.5,0,s,NA,s,NA,NA,s,430,NA,1999,NA,NA,430,2,legacy,1024,2,48000,-16,experiment,3,odd,4937,NA,NA,NA,35230,36447,29336,2927,NA,36453,2935,NA,NA,36557,36988,36556,Flanker Task,16,7898,18,yes,1024
Congruent,HHHHH,89.47368421,89.47368421,439.1578947,439.1578947,black,legacy,legacy,legacy,0,uniform,1,undefined,1,h,0,0,0,18,18,18,18,0,0,18,0,0,0,18,18,18,9/9/18 20:49,1500,The main experiment item,yes,FlankerTask.osexp,E:/,no,mono,no,18,no,white,no,yes,768,legacy,18,18,E:/kg-subject-3.csv,legacy,Kafkaesque Koffka,3.2.5,0,h,NA,s,NA,NA,h,446,NA,1999,NA,NA,446,2,legacy,1024,2,48000,-16,experiment,3,odd,4937,NA,NA,NA,37002,38211,29336,2927,NA,38217,2935,NA,NA,38322,38769,38321,Flanker Task,17,8344,19,yes,1024
Incongruent,HHSHH,90,90,439.9,439.9,black,legacy,legacy,legacy,0,uniform,1,undefined,1,s,0,0,0,19,19,19,19,0,0,19,0,0,0,19,19,19,9/9/18 20:49,1500,The main experiment item,yes,FlankerTask.osexp,E:/,no,mono,no,18,no,white,no,yes,768,legacy,19,19,E:/kg-subject-3.csv,legacy,Kafkaesque Koffka,3.2.5,0,s,NA,s,NA,NA,s,454,NA,1999,NA,NA,454,2,legacy,1024,2,48000,-16,experiment,3,odd,4937,NA,NA,NA,38783,39998,29336,2927,NA,40004,2935,NA,NA,40108,40564,40107,Flanker Task,18,8798,20,yes,1024
Incongruent,SSHSS,90.47619048,90.47619048,437.2380952,437.2380952,black,legacy,legacy,legacy,0,uniform,1,undefined,1,h,0,0,0,20,20,20,20,0,0,20,0,0,0,20,20,20,9/9/18 20:49,1500,The main experiment item,yes,FlankerTask.osexp,E:/,no,mono,no,18,no,white,no,yes,768,legacy,20,20,E:/kg-subject-3.csv,legacy,Kafkaesque Koffka,3.2.5,0,h,NA,s,NA,NA,h,384,NA,1999,NA,NA,384,2,legacy,1024,2,48000,-16,experiment,3,odd,4937,NA,NA,NA,40577,41787,29336,2927,NA,41793,2935,NA,NA,41897,42283,41896,Flanker Task,19,9182,21,yes,1024
Incongruent,SSHSS,86.36363636,86.36363636,434.4545455,434.4545455,black,legacy,legacy,legacy,0,uniform,0,undefined,0,h,0,0,0,21,21,21,21,0,0,21,0,0,0,21,21,21,9/9/18 20:49,1500,The main experiment item,yes,FlankerTask.osexp,E:/,no,mono,no,18,no,white,no,yes,768,legacy,21,21,E:/kg-subject-3.csv,legacy,Kafkaesque Koffka,3.2.5,0,s,NA,s,NA,NA,s,376,NA,1999,NA,NA,376,2,legacy,1024,2,48000,-16,experiment,3,odd,4937,NA,NA,NA,42304,43492,29336,2927,NA,43498,2935,NA,NA,43610,43988,43610,Flanker Task,19,9558,22,yes,1024
Congruent,SSSSS,86.95652174,86.95652174,434.5652174,434.5652174,black,legacy,legacy,legacy,0,uniform,1,undefined,1,s,0,0,0,22,22,22,22,0,0,22,0,0,0,22,22,22,9/9/18 20:49,1500,The main experiment item,yes,FlankerTask.osexp,E:/,no,mono,no,18,no,white,no,yes,768,legacy,22,22,E:/kg-subject-3.csv,legacy,Kafkaesque Koffka,3.2.5,0,s,NA,s,NA,NA,s,437,NA,1999,NA,NA,437,2,legacy,1024,2,48000,-16,experiment,3,odd,4937,NA,NA,NA,44519,45727,44015,2927,NA,45733,2935,NA,NA,45846,46285,45845,Flanker Task,20,9995,23,yes,1024
Incongruent,SSHSS,83.33333333,83.33333333,435.1666667,435.1666667,black,legacy,legacy,legacy,0,uniform,0,undefined,0,h,0,0,0,23,23,23,23,0,0,23,0,0,0,23,23,23,9/9/18 20:49,1500,The main experiment item,yes,FlankerTask.osexp,E:/,no,mono,no,18,no,white,no,yes,768,legacy,23,23,E:/kg-subject-3.csv,legacy,Kafkaesque Koffka,3.2.5,0,s,NA,s,NA,NA,s,449,NA,1999,NA,NA,449,2,legacy,1024,2,48000,-16,experiment,3,odd,4937,NA,NA,NA,46301,47517,44015,2927,NA,47523,2935,NA,NA,47627,48078,47626,Flanker Task,20,10444,24,yes,1024
Congruent,HHHHH,84,84,436.88,436.88,black,legacy,legacy,legacy,0,uniform,1,undefined,1,h,0,0,0,24,24,24,24,0,0,24,0,0,0,24,24,24,9/9/18 20:49,1500,The main experiment item,yes,FlankerTask.osexp,E:/,no,mono,no,18,no,white,no,yes,768,legacy,24,24,E:/kg-subject-3.csv,legacy,Kafkaesque Koffka,3.2.5,0,h,NA,s,NA,NA,h,478,NA,1999,NA,NA,478,2,legacy,1024,2,48000,-16,experiment,3,odd,4937,NA,NA,NA,48602,49811,48092,2927,NA,49816,2935,NA,NA,49920,50400,49920,Flanker Task,21,10922,25,yes,1024
Incongruent,SSHSS,84.61538462,84.61538462,437.6923077,437.6923077,black,legacy,legacy,legacy,0,uniform,1,undefined,1,h,0,0,0,25,25,25,25,0,0,25,0,0,0,25,25,25,9/9/18 20:49,1500,The main experiment item,yes,FlankerTask.osexp,E:/,no,mono,no,18,no,white,no,yes,768,legacy,25,25,E:/kg-subject-3.csv,legacy,Kafkaesque Koffka,3.2.5,0,h,NA,s,NA,NA,h,458,NA,1999,NA,NA,458,2,legacy,1024,2,48000,-16,experiment,3,odd,4937,NA,NA,NA,50413,51624,48092,2927,NA,51629,2935,NA,NA,51734,52194,51734,Flanker Task,22,11380,26,yes,1024
Incongruent,HHSHH,85.18518519,85.18518519,439,439,black,legacy,legacy,legacy,0,uniform,1,undefined,1,s,0,0,0,26,26,26,26,0,0,26,0,0,0,26,26,26,9/9/18 20:49,1500,The main experiment item,yes,FlankerTask.osexp,E:/,no,mono,no,18,no,white,no,yes,768,legacy,26,26,E:/kg-subject-3.csv,legacy,Kafkaesque Koffka,3.2.5,0,s,NA,s,NA,NA,s,473,NA,1999,NA,NA,473,2,legacy,1024,2,48000,-16,experiment,3,odd,4937,NA,NA,NA,52207,53416,48092,2927,NA,53421,2935,NA,NA,53525,54001,53525,Flanker Task,23,11853,27,yes,1024
Congruent,HHHHH,85.71428571,85.71428571,437.7142857,437.7142857,black,legacy,legacy,legacy,0,uniform,1,undefined,1,h,0,0,0,27,27,27,27,0,0,27,0,0,0,27,27,27,9/9/18 20:49,1500,The main experiment item,yes,FlankerTask.osexp,E:/,no,mono,no,18,no,white,no,yes,768,legacy,27,27,E:/kg-subject-3.csv,legacy,Kafkaesque Koffka,3.2.5,0,h,NA,s,NA,NA,h,403,NA,1999,NA,NA,403,2,legacy,1024,2,48000,-16,experiment,3,odd,4937,NA,NA,NA,54014,55231,48092,2927,NA,55237,2935,NA,NA,55350,55755,55350,Flanker Task,24,12256,28,yes,1024
Congruent,HHHHH,86.20689655,86.20689655,436.7586207,436.7586207,black,legacy,legacy,legacy,0,uniform,1,undefined,1,h,0,0,0,28,28,28,28,0,0,28,0,0,0,28,28,28,9/9/18 20:49,1500,The main experiment item,yes,FlankerTask.osexp,E:/,no,mono,no,18,no,white,no,yes,768,legacy,28,28,E:/kg-subject-3.csv,legacy,Kafkaesque Koffka,3.2.5,0,h,NA,s,NA,NA,h,410,NA,1999,NA,NA,410,2,legacy,1024,2,48000,-16,experiment,3,odd,4937,NA,NA,NA,55768,56963,48092,2927,NA,56968,2935,NA,NA,57074,57485,57073,Flanker Task,25,12666,29,yes,1024
Incongruent,SSHSS,86.66666667,86.66666667,435.1666667,435.1666667,black,legacy,legacy,legacy,0,uniform,1,undefined,1,h,0,0,0,29,29,29,29,0,0,29,0,0,0,29,29,29,9/9/18 20:49,1500,The main experiment item,yes,FlankerTask.osexp,E:/,no,mono,no,18,no,white,no,yes,768,legacy,29,29,E:/kg-subject-3.csv,legacy,Kafkaesque Koffka,3.2.5,0,h,NA,s,NA,NA,h,389,NA,1999,NA,NA,389,2,legacy,1024,2,48000,-16,experiment,3,odd,4937,NA,NA,NA,57499,58695,48092,2927,NA,58700,2935,NA,NA,58812,59204,58812,Flanker Task,26,13055,30,yes,1024
Incongruent,HHSHH,87.09677419,87.09677419,434.0645161,434.0645161,black,legacy,legacy,legacy,0,uniform,1,undefined,1,s,0,0,0,30,30,30,30,0,0,30,0,0,0,30,30,30,9/9/18 20:49,1500,The main experiment item,yes,FlankerTask.osexp,E:/,no,mono,no,18,no,white,no,yes,768,legacy,30,30,E:/kg-subject-3.csv,legacy,Kafkaesque Koffka,3.2.5,0,s,NA,s,NA,NA,s,401,NA,1999,NA,NA,401,2,legacy,1024,2,48000,-16,experiment,3,odd,4937,NA,NA,NA,59219,60443,48092,2927,NA,60449,2935,NA,NA,60556,60959,60556,Flanker Task,27,13456,31,yes,1024
Congruent,SSSSS,87.5,87.5,436.34375,436.34375,black,legacy,legacy,legacy,0,uniform,1,undefined,1,s,0,0,0,31,31,31,31,0,0,31,0,0,0,31,31,31,9/9/18 20:49,1500,The main experiment item,yes,FlankerTask.osexp,E:/,no,mono,no,18,no,white,no,yes,768,legacy,31,31,E:/kg-subject-3.csv,legacy,Kafkaesque Koffka,3.2.5,0,s,NA,s,NA,NA,s,507,NA,1999,NA,NA,507,2,legacy,1024,2,48000,-16,experiment,3,odd,4937,NA,NA,NA,60973,62197,48092,2927,NA,62203,2935,NA,NA,62307,62816,62306,Flanker Task,28,13963,32,yes,1024
Incongruent,SSHSS,87.87878788,87.87878788,438.030303,438.030303,black,legacy,legacy,legacy,0,uniform,1,undefined,1,h,0,0,0,32,32,32,32,0,0,32,0,0,0,32,32,32,9/9/18 20:49,1500,The main experiment item,yes,FlankerTask.osexp,E:/,no,mono,no,18,no,white,no,yes,768,legacy,32,32,E:/kg-subject-3.csv,legacy,Kafkaesque Koffka,3.2.5,0,h,NA,s,NA,NA,h,492,NA,1999,NA,NA,492,2,legacy,1024,2,48000,-16,experiment,3,odd,4937,NA,NA,NA,62830,64044,48092,2927,NA,64050,2935,NA,NA,64154,64648,64154,Flanker Task,29,14455,33,yes,1024
Congruent,HHHHH,88.23529412,88.23529412,441.4117647,441.4117647,black,legacy,legacy,legacy,0,uniform,1,undefined,1,h,0,0,0,33,33,33,33,0,0,33,0,0,0,33,33,33,9/9/18 20:49,1500,The main experiment item,yes,FlankerTask.osexp,E:/,no,mono,no,18,no,white,no,yes,768,legacy,33,33,E:/kg-subject-3.csv,legacy,Kafkaesque Koffka,3.2.5,0,h,NA,s,NA,NA,h,553,NA,1999,NA,NA,553,2,legacy,1024,2,48000,-16,experiment,3,odd,4937,NA,NA,NA,64661,65876,48092,2927,NA,65882,2935,NA,NA,65986,66541,65985,Flanker Task,30,15008,34,yes,1024
Incongruent,HHSHH,88.57142857,88.57142857,441.0285714,441.0285714,black,legacy,legacy,legacy,0,uniform,1,undefined,1,s,0,0,0,34,34,34,34,0,0,34,0,0,0,34,34,34,9/9/18 20:49,1500,The main experiment item,yes,FlankerTask.osexp,E:/,no,mono,no,18,no,white,no,yes,768,legacy,34,34,E:/kg-subject-3.csv,legacy,Kafkaesque Koffka,3.2.5,0,s,NA,s,NA,NA,s,428,NA,1999,NA,NA,428,2,legacy,1024,2,48000,-16,experiment,3,odd,4937,NA,NA,NA,66555,67776,48092,2927,NA,67782,2935,NA,NA,67895,68325,67894,Flanker Task,31,15436,35,yes,1024
Congruent,HHHHH,88.88888889,88.88888889,439.9444444,439.9444444,black,legacy,legacy,legacy,0,uniform,1,undefined,1,h,0,0,0,35,35,35,35,0,0,35,0,0,0,35,35,35,9/9/18 20:49,1500,The main experiment item,yes,FlankerTask.osexp,E:/,no,mono,no,18,no,white,no,yes,768,legacy,35,35,E:/kg-subject-3.csv,legacy,Kafkaesque Koffka,3.2.5,0,h,NA,s,NA,NA,h,402,NA,1999,NA,NA,402,2,legacy,1024,2,48000,-16,experiment,3,odd,4937,NA,NA,NA,68339,69554,48092,2927,NA,69560,2935,NA,NA,69664,70068,69663,Flanker Task,32,15838,36,yes,1024
Incongruent,SSHSS,89.18918919,89.18918919,442.7837838,442.7837838,black,legacy,legacy,legacy,0,uniform,1,undefined,1,h,0,0,0,36,36,36,36,0,0,36,0,0,0,36,36,36,9/9/18 20:49,1500,The main experiment item,yes,FlankerTask.osexp,E:/,no,mono,no,18,no,white,no,yes,768,legacy,36,36,E:/kg-subject-3.csv,legacy,Kafkaesque Koffka,3.2.5,0,h,NA,s,NA,NA,h,545,NA,1999,NA,NA,545,2,legacy,1024,2,48000,-16,experiment,3,odd,4937,NA,NA,NA,70083,71305,48092,2927,NA,71311,2935,NA,NA,71415,71962,71415,Flanker Task,33,16383,37,yes,1024
Congruent,SSSSS,89.47368421,89.47368421,443.0789474,443.0789474,black,legacy,legacy,legacy,0,uniform,1,undefined,1,s,0,0,0,37,37,37,37,0,0,37,0,0,0,37,37,37,9/9/18 20:49,1500,The main experiment item,yes,FlankerTask.osexp,E:/,no,mono,no,18,no,white,no,yes,768,legacy,37,37,E:/kg-subject-3.csv,legacy,Kafkaesque Koffka,3.2.5,0,s,NA,s,NA,NA,s,454,NA,1999,NA,NA,454,2,legacy,1024,2,48000,-16,experiment,3,odd,4937,NA,NA,NA,71976,73190,48092,2927,NA,73195,2935,NA,NA,73300,73756,73299,Flanker Task,34,16837,38,yes,1024
Congruent,HHHHH,89.74358974,89.74358974,442.025641,442.025641,black,legacy,legacy,legacy,0,uniform,1,undefined,1,h,0,0,0,38,38,38,38,0,0,38,0,0,0,38,38,38,9/9/18 20:49,1500,The main experiment item,yes,FlankerTask.osexp,E:/,no,mono,no,18,no,white,no,yes,768,legacy,38,38,E:/kg-subject-3.csv,legacy,Kafkaesque Koffka,3.2.5,0,h,NA,s,NA,NA,h,402,NA,1999,NA,NA,402,2,legacy,1024,2,48000,-16,experiment,3,odd,4937,NA,NA,NA,73773,74984,48092,2927,NA,74990,2935,NA,NA,75094,75498,75093,Flanker Task,35,17239,39,yes,1024
Congruent,HHHHH,90,90,441.3,441.3,black,legacy,legacy,legacy,0,uniform,1,undefined,1,h,0,0,0,39,39,39,39,0,0,39,0,0,0,39,39,39,9/9/18 20:49,1500,The main experiment item,yes,FlankerTask.osexp,E:/,no,mono,no,18,no,white,no,yes,768,legacy,39,39,E:/kg-subject-3.csv,legacy,Kafkaesque Koffka,3.2.5,0,h,NA,s,NA,NA,h,413,NA,1999,NA,NA,413,2,legacy,1024,2,48000,-16,experiment,3,odd,4937,NA,NA,NA,75511,76721,48092,2927,NA,76726,2935,NA,NA,76830,77245,76829,Flanker Task,36,17652,40,yes,1024
Incongruent,SSHSS,87.80487805,87.80487805,441.097561,441.097561,black,legacy,legacy,legacy,0,uniform,0,undefined,0,h,0,0,0,40,40,40,40,0,0,40,0,0,0,40,40,40,9/9/18 20:49,1500,The main experiment item,yes,FlankerTask.osexp,E:/,no,mono,no,18,no,white,no,yes,768,legacy,40,40,E:/kg-subject-3.csv,legacy,Kafkaesque Koffka,3.2.5,0,s,NA,s,NA,NA,s,433,NA,1999,NA,NA,433,2,legacy,1024,2,48000,-16,experiment,3,odd,4937,NA,NA,NA,77258,78446,48092,2927,NA,78452,2935,NA,NA,78565,79001,78564,Flanker Task,36,18085,41,yes,1024
Congruent,SSSSS,88.0952381,88.0952381,440.5714286,440.5714286,black,legacy,legacy,legacy,0,uniform,1,undefined,1,s,0,0,0,41,41,41,41,0,0,41,0,0,0,41,41,41,9/9/18 20:49,1500,The main experiment item,yes,FlankerTask.osexp,E:/,no,mono,no,18,no,white,no,yes,768,legacy,41,41,E:/kg-subject-3.csv,legacy,Kafkaesque Koffka,3.2.5,0,s,NA,s,NA,NA,s,419,NA,1999,NA,NA,419,2,legacy,1024,2,48000,-16,experiment,3,odd,4937,NA,NA,NA,79527,80730,79014,2927,NA,80735,2935,NA,NA,80849,81270,80848,Flanker Task,37,18504,42,yes,1024
Incongruent,HHSHH,86.04651163,86.04651163,439.6046512,439.6046512,black,legacy,legacy,legacy,0,uniform,0,undefined,0,s,0,0,0,42,42,42,42,0,0,42,0,0,0,42,42,42,9/9/18 20:49,1500,The main experiment item,yes,FlankerTask.osexp,E:/,no,mono,no,18,no,white,no,yes,768,legacy,42,42,E:/kg-subject-3.csv,legacy,Kafkaesque Koffka,3.2.5,0,h,NA,s,NA,NA,h,399,NA,1999,NA,NA,399,2,legacy,1024,2,48000,-16,experiment,3,odd,4937,NA,NA,NA,81284,82500,79014,2927,NA,82506,2935,NA,NA,82612,83014,82612,Flanker Task,37,18903,43,yes,1024
Incongruent,SSHSS,86.36363636,86.36363636,440.0909091,440.0909091,black,legacy,legacy,legacy,0,uniform,1,undefined,1,h,0,0,0,43,43,43,43,0,0,43,0,0,0,43,43,43,9/9/18 20:49,1500,The main experiment item,yes,FlankerTask.osexp,E:/,no,mono,no,18,no,white,no,yes,768,legacy,43,43,E:/kg-subject-3.csv,legacy,Kafkaesque Koffka,3.2.5,0,h,NA,s,NA,NA,h,461,NA,1999,NA,NA,461,2,legacy,1024,2,48000,-16,experiment,3,odd,4937,NA,NA,NA,83539,84747,83027,2927,NA,84753,2935,NA,NA,84857,85321,84857,Flanker Task,38,19364,44,yes,1024
Congruent,SSSSS,86.66666667,86.66666667,440.4,440.4,black,legacy,legacy,legacy,0,uniform,1,undefined,1,s,0,0,0,44,44,44,44,0,0,44,0,0,0,44,44,44,9/9/18 20:49,1500,The main experiment item,yes,FlankerTask.osexp,E:/,no,mono,no,18,no,white,no,yes,768,legacy,44,44,E:/kg-subject-3.csv,legacy,Kafkaesque Koffka,3.2.5,0,s,NA,s,NA,NA,s,454,NA,1999,NA,NA,454,2,legacy,1024,2,48000,-16,experiment,3,odd,4937,NA,NA,NA,85339,86530,83027,2927,NA,86536,2935,NA,NA,86644,87100,86644,Flanker Task,39,19818,45,yes,1024
Congruent,HHHHH,86.95652174,86.95652174,440.0217391,440.0217391,black,legacy,legacy,legacy,0,uniform,1,undefined,1,h,0,0,0,45,45,45,45,0,0,45,0,0,0,45,45,45,9/9/18 20:49,1500,The main experiment item,yes,FlankerTask.osexp,E:/,no,mono,no,18,no,white,no,yes,768,legacy,45,45,E:/kg-subject-3.csv,legacy,Kafkaesque Koffka,3.2.5,0,h,NA,s,NA,NA,h,423,NA,1999,NA,NA,423,2,legacy,1024,2,48000,-16,experiment,3,odd,4937,NA,NA,NA,87114,88300,83027,2927,NA,88306,2935,NA,NA,88420,88846,88419,Flanker Task,40,20241,46,yes,1024
Incongruent,HHSHH,87.23404255,87.23404255,441.1702128,441.1702128,black,legacy,legacy,legacy,0,uniform,1,undefined,1,s,0,0,0,46,46,46,46,0,0,46,0,0,0,46,46,46,9/9/18 20:49,1500,The main experiment item,yes,FlankerTask.osexp,E:/,no,mono,no,18,no,white,no,yes,768,legacy,46,46,E:/kg-subject-3.csv,legacy,Kafkaesque Koffka,3.2.5,0,s,NA,s,NA,NA,s,494,NA,1999,NA,NA,494,2,legacy,1024,2,48000,-16,experiment,3,odd,4937,NA,NA,NA,88861,90050,83027,2927,NA,90056,2935,NA,NA,90167,90663,90167,Flanker Task,41,20735,47,yes,1024
Incongruent,HHSHH,85.41666667,85.41666667,439.8541667,439.8541667,black,legacy,legacy,legacy,0,uniform,0,undefined,0,s,0,0,0,47,47,47,47,0,0,47,0,0,0,47,47,47,9/9/18 20:49,1500,The main experiment item,yes,FlankerTask.osexp,E:/,no,mono,no,18,no,white,no,yes,768,legacy,47,47,E:/kg-subject-3.csv,legacy,Kafkaesque Koffka,3.2.5,0,h,NA,s,NA,NA,h,378,NA,1999,NA,NA,378,2,legacy,1024,2,48000,-16,experiment,3,odd,4937,NA,NA,NA,90676,91871,83027,2927,NA,91877,2935,NA,NA,91990,92371,91989,Flanker Task,41,21113,48,yes,1024
Congruent,HHHHH,85.71428571,85.71428571,440.2244898,440.2244898,black,legacy,legacy,legacy,0,uniform,1,undefined,1,h,0,0,0,48,48,48,48,0,0,48,0,0,0,48,48,48,9/9/18 20:49,1500,The main experiment item,yes,FlankerTask.osexp,E:/,no,mono,no,18,no,white,no,yes,768,legacy,48,48,E:/kg-subject-3.csv,legacy,Kafkaesque Koffka,3.2.5,0,h,NA,s,NA,NA,h,458,NA,1999,NA,NA,458,2,legacy,1024,2,48000,-16,experiment,3,odd,4937,NA,NA,NA,92898,94098,92384,2927,NA,94103,2935,NA,NA,94207,94667,94207,Flanker Task,42,21571,49,yes,1024
Congruent,SSSSS,84,84,440.7,440.7,black,legacy,legacy,legacy,0,uniform,0,undefined,0,s,0,0,0,49,49,49,49,0,0,49,0,0,0,49,49,49,9/9/18 20:49,1500,The main experiment item,yes,FlankerTask.osexp,E:/,no,mono,no,18,no,white,no,yes,768,legacy,49,49,E:/kg-subject-3.csv,legacy,Kafkaesque Koffka,3.2.5,0,h,NA,s,NA,NA,h,464,NA,1999,NA,NA,464,2,legacy,1024,2,48000,-16,experiment,3,odd,4937,NA,NA,NA,94681,95876,92384,2927,NA,95881,2935,NA,NA,95994,96460,95994,Flanker Task,42,22035,50,yes,1024
Incongruent,HHSHH,84.31372549,84.31372549,442.9215686,442.9215686,black,legacy,legacy,legacy,0,uniform,1,undefined,1,s,0,0,0,50,50,50,50,0,0,50,0,0,0,50,50,50,9/9/18 20:49,1500,The main experiment item,yes,FlankerTask.osexp,E:/,no,mono,no,18,no,white,no,yes,768,legacy,50,50,E:/kg-subject-3.csv,legacy,Kafkaesque Koffka,3.2.5,0,s,NA,s,NA,NA,s,554,NA,1999,NA,NA,554,2,legacy,1024,2,48000,-16,experiment,3,odd,4937,NA,NA,NA,96986,98181,96473,2927,NA,98187,2935,NA,NA,98301,98857,98300,Flanker Task,43,22589,51,yes,1024
Incongruent,HHSHH,84.61538462,84.61538462,444.3269231,444.3269231,black,legacy,legacy,legacy,0,uniform,1,undefined,1,s,0,0,0,51,51,51,51,0,0,51,0,0,0,51,51,51,9/9/18 20:49,1500,The main experiment item,yes,FlankerTask.osexp,E:/,no,mono,no,18,no,white,no,yes,768,legacy,51,51,E:/kg-subject-3.csv,legacy,Kafkaesque Koffka,3.2.5,0,s,NA,s,NA,NA,s,516,NA,1999,NA,NA,516,2,legacy,1024,2,48000,-16,experiment,3,odd,4937,NA,NA,NA,98871,100063,96473,2927,NA,100069,2935,NA,NA,100181,100700,100181,Flanker Task,44,23105,52,yes,1024
Congruent,SSSSS,84.90566038,84.90566038,444.9811321,444.9811321,black,legacy,legacy,legacy,0,uniform,1,undefined,1,s,0,0,0,52,52,52,52,0,0,52,0,0,0,52,52,52,9/9/18 20:49,1500,The main experiment item,yes,FlankerTask.osexp,E:/,no,mono,no,18,no,white,no,yes,768,legacy,52,52,E:/kg-subject-3.csv,legacy,Kafkaesque Koffka,3.2.5,0,s,NA,s,NA,NA,s,479,NA,1999,NA,NA,479,2,legacy,1024,2,48000,-16,experiment,3,odd,4937,NA,NA,NA,100719,101912,96473,2927,NA,101918,2935,NA,NA,102026,102508,102026,Flanker Task,45,23584,53,yes,1024
Congruent,SSSSS,85.18518519,85.18518519,444.6851852,444.6851852,black,legacy,legacy,legacy,0,uniform,1,undefined,1,s,0,0,0,53,53,53,53,0,0,53,0,0,0,53,53,53,9/9/18 20:49,1500,The main experiment item,yes,FlankerTask.osexp,E:/,no,mono,no,18,no,white,no,yes,768,legacy,53,53,E:/kg-subject-3.csv,legacy,Kafkaesque Koffka,3.2.5,0,s,NA,s,NA,NA,s,429,NA,1999,NA,NA,429,2,legacy,1024,2,48000,-16,experiment,3,odd,4937,NA,NA,NA,102523,103740,96473,2927,NA,103745,2935,NA,NA,103857,104289,103857,Flanker Task,46,24013,54,yes,1024
Congruent,HHHHH,85.45454545,85.45454545,444.8545455,444.8545455,black,legacy,legacy,legacy,0,uniform,1,undefined,1,h,0,0,0,54,54,54,54,0,0,54,0,0,0,54,54,54,9/9/18 20:49,1500,The main experiment item,yes,FlankerTask.osexp,E:/,no,mono,no,18,no,white,no,yes,768,legacy,54,54,E:/kg-subject-3.csv,legacy,Kafkaesque Koffka,3.2.5,0,h,NA,s,NA,NA,h,454,NA,1999,NA,NA,454,2,legacy,1024,2,48000,-16,experiment,3,odd,4937,NA,NA,NA,104302,105523,96473,2927,NA,105530,2935,NA,NA,105637,106094,105637,Flanker Task,47,24467,55,yes,1024
Incongruent,HHSHH,85.71428571,85.71428571,446.2678571,446.2678571,black,legacy,legacy,legacy,0,uniform,1,undefined,1,s,0,0,0,55,55,55,55,0,0,55,0,0,0,55,55,55,9/9/18 20:49,1500,The main experiment item,yes,FlankerTask.osexp,E:/,no,mono,no,18,no,white,no,yes,768,legacy,55,55,E:/kg-subject-3.csv,legacy,Kafkaesque Koffka,3.2.5,0,s,NA,s,NA,NA,s,524,NA,1999,NA,NA,524,2,legacy,1024,2,48000,-16,experiment,3,odd,4937,NA,NA,NA,106108,107315,96473,2927,NA,107320,2935,NA,NA,107424,107951,107424,Flanker Task,48,24991,56,yes,1024
Congruent,SSSSS,85.96491228,85.96491228,447.0877193,447.0877193,black,legacy,legacy,legacy,0,uniform,1,undefined,1,s,0,0,0,56,56,56,56,0,0,56,0,0,0,56,56,56,9/9/18 20:49,1500,The main experiment item,yes,FlankerTask.osexp,E:/,no,mono,no,18,no,white,no,yes,768,legacy,56,56,E:/kg-subject-3.csv,legacy,Kafkaesque Koffka,3.2.5,0,s,NA,s,NA,NA,s,493,NA,1999,NA,NA,493,2,legacy,1024,2,48000,-16,experiment,3,odd,4937,NA,NA,NA,107964,109175,96473,2927,NA,109181,2935,NA,NA,109285,109781,109285,Flanker Task,49,25484,57,yes,1024
Incongruent,HHSHH,86.20689655,86.20689655,448.7931034,448.7931034,black,legacy,legacy,legacy,0,uniform,1,undefined,1,s,0,0,0,57,57,57,57,0,0,57,0,0,0,57,57,57,9/9/18 20:49,1500,The main experiment item,yes,FlankerTask.osexp,E:/,no,mono,no,18,no,white,no,yes,768,legacy,57,57,E:/kg-subject-3.csv,legacy,Kafkaesque Koffka,3.2.5,0,s,NA,s,NA,NA,s,546,NA,1999,NA,NA,546,2,legacy,1024,2,48000,-16,experiment,3,odd,4937,NA,NA,NA,109795,111004,96473,2927,NA,111010,2935,NA,NA,111114,111663,111113,Flanker Task,50,26030,58,yes,1024
Incongruent,SSHSS,86.44067797,86.44067797,449,449,black,legacy,legacy,legacy,0,uniform,1,undefined,1,h,0,0,0,58,58,58,58,0,0,58,0,0,0,58,58,58,9/9/18 20:49,1500,The main experiment item,yes,FlankerTask.osexp,E:/,no,mono,no,18,no,white,no,yes,768,legacy,58,58,E:/kg-subject-3.csv,legacy,Kafkaesque Koffka,3.2.5,0,h,NA,s,NA,NA,h,461,NA,1999,NA,NA,461,2,legacy,1024,2,48000,-16,experiment,3,odd,4937,NA,NA,NA,111676,112893,96473,2927,NA,112898,2935,NA,NA,113005,113469,113005,Flanker Task,51,26491,59,yes,1024
Congruent,SSSSS,86.66666667,86.66666667,448.5833333,448.5833333,black,legacy,legacy,legacy,0,uniform,1,undefined,1,s,0,0,0,59,59,59,59,0,0,59,0,0,0,59,59,59,9/9/18 20:49,1500,The main experiment item,yes,FlankerTask.osexp,E:/,no,mono,no,18,no,white,no,yes,768,legacy,59,59,E:/kg-subject-3.csv,legacy,Kafkaesque Koffka,3.2.5,0,s,NA,s,NA,NA,s,424,NA,1999,NA,NA,424,2,legacy,1024,2,48000,-16,experiment,3,odd,4937,NA,NA,NA,113482,114693,96473,2927,NA,114698,2935,NA,NA,114810,115237,114809,Flanker Task,52,26915,60,yes,1024
Congruent,HHHHH,86.8852459,86.8852459,448.6721311,448.6721311,black,legacy,legacy,legacy,0,uniform,1,undefined,1,h,0,0,0,60,60,60,60,0,0,60,0,0,0,60,60,60,9/9/18 20:49,1500,The main experiment item,yes,FlankerTask.osexp,E:/,no,mono,no,18,no,white,no,yes,768,legacy,60,60,E:/kg-subject-3.csv,legacy,Kafkaesque Koffka,3.2.5,0,h,NA,s,NA,NA,h,454,NA,1999,NA,NA,454,2,legacy,1024,2,48000,-16,experiment,3,odd,4937,NA,NA,NA,115259,116476,96473,2927,NA,116482,2935,NA,NA,116586,117043,116585,Flanker Task,53,27369,61,yes,1024
Incongruent,HHSHH,87.09677419,87.09677419,448.8870968,448.8870968,black,legacy,legacy,legacy,0,uniform,1,undefined,1,s,0,0,0,61,61,61,61,0,0,61,0,0,0,61,61,61,9/9/18 20:49,1500,The main experiment item,yes,FlankerTask.osexp,E:/,no,mono,no,18,no,white,no,yes,768,legacy,61,61,E:/kg-subject-3.csv,legacy,Kafkaesque Koffka,3.2.5,0,s,NA,s,NA,NA,s,462,NA,1999,NA,NA,462,2,legacy,1024,2,48000,-16,experiment,3,odd,4937,NA,NA,NA,117058,118263,96473,2927,NA,118268,2935,NA,NA,118372,118837,118371,Flanker Task,54,27831,62,yes,1024
Congruent,SSSSS,87.3015873,87.3015873,450.1111111,450.1111111,black,legacy,legacy,legacy,0,uniform,1,undefined,1,s,0,0,0,62,62,62,62,0,0,62,0,0,0,62,62,62,9/9/18 20:49,1500,The main experiment item,yes,FlankerTask.osexp,E:/,no,mono,no,18,no,white,no,yes,768,legacy,62,62,E:/kg-subject-3.csv,legacy,Kafkaesque Koffka,3.2.5,0,s,NA,s,NA,NA,s,526,NA,1999,NA,NA,526,2,legacy,1024,2,48000,-16,experiment,3,odd,4937,NA,NA,NA,118851,120066,96473,2927,NA,120072,2935,NA,NA,120176,120705,120175,Flanker Task,55,28357,63,yes,1024
Incongruent,HHSHH,87.5,87.5,448.921875,448.921875,black,legacy,legacy,legacy,0,uniform,1,undefined,1,s,0,0,0,63,63,63,63,0,0,63,0,0,0,63,63,63,9/9/18 20:49,1500,The main experiment item,yes,FlankerTask.osexp,E:/,no,mono,no,18,no,white,no,yes,768,legacy,63,63,E:/kg-subject-3.csv,legacy,Kafkaesque Koffka,3.2.5,0,s,NA,s,NA,NA,s,374,NA,1999,NA,NA,374,2,legacy,1024,2,48000,-16,experiment,3,odd,4937,NA,NA,NA,120719,121936,96473,2927,NA,121941,2935,NA,NA,122046,122423,122046,Flanker Task,56,28731,64,yes,1024
Congruent,HHHHH,87.69230769,87.69230769,448.8923077,448.8923077,black,legacy,legacy,legacy,0,uniform,1,undefined,1,h,0,0,0,64,64,64,64,0,0,64,0,0,0,64,64,64,9/9/18 20:49,1500,The main experiment item,yes,FlankerTask.osexp,E:/,no,mono,no,18,no,white,no,yes,768,legacy,64,64,E:/kg-subject-3.csv,legacy,Kafkaesque Koffka,3.2.5,0,h,NA,s,NA,NA,h,447,NA,1999,NA,NA,447,2,legacy,1024,2,48000,-16,experiment,3,odd,4937,NA,NA,NA,122436,123655,96473,2927,NA,123661,2935,NA,NA,123766,124216,123766,Flanker Task,57,29178,65,yes,1024
Incongruent,SSHSS,87.87878788,87.87878788,450.9393939,450.9393939,black,legacy,legacy,legacy,0,uniform,1,undefined,1,h,0,0,0,65,65,65,65,0,0,65,0,0,0,65,65,65,9/9/18 20:49,1500,The main experiment item,yes,FlankerTask.osexp,E:/,no,mono,no,18,no,white,no,yes,768,legacy,65,65,E:/kg-subject-3.csv,legacy,Kafkaesque Koffka,3.2.5,0,h,NA,s,NA,NA,h,584,NA,1999,NA,NA,584,2,legacy,1024,2,48000,-16,experiment,3,odd,4937,NA,NA,NA,124229,125418,96473,2927,NA,125423,2935,NA,NA,125535,126122,125535,Flanker Task,58,29762,66,yes,1024
Congruent,HHHHH,88.05970149,88.05970149,450.8358209,450.8358209,black,legacy,legacy,legacy,0,uniform,1,undefined,1,h,0,0,0,66,66,66,66,0,0,66,0,0,0,66,66,66,9/9/18 20:49,1500,The main experiment item,yes,FlankerTask.osexp,E:/,no,mono,no,18,no,white,no,yes,768,legacy,66,66,E:/kg-subject-3.csv,legacy,Kafkaesque Koffka,3.2.5,0,h,NA,s,NA,NA,h,444,NA,1999,NA,NA,444,2,legacy,1024,2,48000,-16,experiment,3,odd,4937,NA,NA,NA,126137,127327,96473,2927,NA,127333,2935,NA,NA,127443,127890,127442,Flanker Task,59,30206,67,yes,1024
Incongruent,HHSHH,88.23529412,88.23529412,452.0294118,452.0294118,black,legacy,legacy,legacy,0,uniform,1,undefined,1,s,0,0,0,67,67,67,67,0,0,67,0,0,0,67,67,67,9/9/18 20:49,1500,The main experiment item,yes,FlankerTask.osexp,E:/,no,mono,no,18,no,white,no,yes,768,legacy,67,67,E:/kg-subject-3.csv,legacy,Kafkaesque Koffka,3.2.5,0,s,NA,s,NA,NA,s,532,NA,1999,NA,NA,532,2,legacy,1024,2,48000,-16,experiment,3,odd,4937,NA,NA,NA,127903,129095,96473,2927,NA,129100,2935,NA,NA,129211,129746,129211,Flanker Task,60,30738,68,yes,1024
Congruent,HHHHH,88.4057971,88.4057971,452.4492754,452.4492754,black,legacy,legacy,legacy,0,uniform,1,undefined,1,h,0,0,0,68,68,68,68,0,0,68,0,0,0,68,68,68,9/9/18 20:49,1500,The main experiment item,yes,FlankerTask.osexp,E:/,no,mono,no,18,no,white,no,yes,768,legacy,68,68,E:/kg-subject-3.csv,legacy,Kafkaesque Koffka,3.2.5,0,h,NA,s,NA,NA,h,481,NA,1999,NA,NA,481,2,legacy,1024,2,48000,-16,experiment,3,odd,4937,NA,NA,NA,129759,130949,96473,2927,NA,130955,2935,NA,NA,131067,131551,131066,Flanker Task,61,31219,69,yes,1024
Congruent,SSSSS,88.57142857,88.57142857,452.8,452.8,black,legacy,legacy,legacy,0,uniform,1,undefined,1,s,0,0,0,69,69,69,69,0,0,69,0,0,0,69,69,69,9/9/18 20:49,1500,The main experiment item,yes,FlankerTask.osexp,E:/,no,mono,no,18,no,white,no,yes,768,legacy,69,69,E:/kg-subject-3.csv,legacy,Kafkaesque Koffka,3.2.5,0,s,NA,s,NA,NA,s,477,NA,1999,NA,NA,477,2,legacy,1024,2,48000,-16,experiment,3,odd,4937,NA,NA,NA,131566,132757,96473,2927,NA,132763,2935,NA,NA,132876,133357,132876,Flanker Task,62,31696,70,yes,1024
Congruent,SSSSS,88.73239437,88.73239437,452.7464789,452.7464789,black,legacy,legacy,legacy,0,uniform,1,undefined,1,s,0,0,0,70,70,70,70,0,0,70,0,0,0,70,70,70,9/9/18 20:49,1500,The main experiment item,yes,FlankerTask.osexp,E:/,no,mono,no,18,no,white,no,yes,768,legacy,70,70,E:/kg-subject-3.csv,legacy,Kafkaesque Koffka,3.2.5,0,s,NA,s,NA,NA,s,449,NA,1999,NA,NA,449,2,legacy,1024,2,48000,-16,experiment,3,odd,4937,NA,NA,NA,133370,134567,96473,2927,NA,134573,2935,NA,NA,134685,135137,134685,Flanker Task,63,32145,71,yes,1024
Congruent,SSSSS,88.88888889,88.88888889,452.2222222,452.2222222,black,legacy,legacy,legacy,0,uniform,1,undefined,1,s,0,0,0,71,71,71,71,0,0,71,0,0,0,71,71,71,9/9/18 20:49,1500,The main experiment item,yes,FlankerTask.osexp,E:/,no,mono,no,18,no,white,no,yes,768,legacy,71,71,E:/kg-subject-3.csv,legacy,Kafkaesque Koffka,3.2.5,0,s,NA,s,NA,NA,s,415,NA,1999,NA,NA,415,2,legacy,1024,2,48000,-16,experiment,3,odd,4937,NA,NA,NA,135150,136369,96473,2927,NA,136374,2935,NA,NA,136487,136905,136486,Flanker Task,64,32560,72,yes,1024
Incongruent,SSHSS,89.04109589,89.04109589,452.7808219,452.7808219,black,legacy,legacy,legacy,0,uniform,1,undefined,1,h,0,0,0,72,72,72,72,0,0,72,0,0,0,72,72,72,9/9/18 20:49,1500,The main experiment item,yes,FlankerTask.osexp,E:/,no,mono,no,18,no,white,no,yes,768,legacy,72,72,E:/kg-subject-3.csv,legacy,Kafkaesque Koffka,3.2.5,0,h,NA,s,NA,NA,h,493,NA,1999,NA,NA,493,2,legacy,1024,2,48000,-16,experiment,3,odd,4937,NA,NA,NA,136972,138184,96473,2927,NA,138189,2935,NA,NA,138301,138798,138300,Flanker Task,65,33053,73,yes,1024
Congruent,SSSSS,89.18918919,89.18918919,452.6216216,452.6216216,black,legacy,legacy,legacy,0,uniform,1,undefined,1,s,0,0,0,73,73,73,73,0,0,73,0,0,0,73,73,73,9/9/18 20:49,1500,The main experiment item,yes,FlankerTask.osexp,E:/,no,mono,no,18,no,white,no,yes,768,legacy,73,73,E:/kg-subject-3.csv,legacy,Kafkaesque Koffka,3.2.5,0,s,NA,s,NA,NA,s,441,NA,1999,NA,NA,441,2,legacy,1024,2,48000,-16,experiment,3,odd,4937,NA,NA,NA,138811,140028,96473,2927,NA,140034,2935,NA,NA,140146,140591,140146,Flanker Task,66,33494,74,yes,1024
Congruent,HHHHH,89.33333333,89.33333333,451.8933333,451.8933333,black,legacy,legacy,legacy,0,uniform,1,undefined,1,h,0,0,0,74,74,74,74,0,0,74,0,0,0,74,74,74,9/9/18 20:49,1500,The main experiment item,yes,FlankerTask.osexp,E:/,no,mono,no,18,no,white,no,yes,768,legacy,74,74,E:/kg-subject-3.csv,legacy,Kafkaesque Koffka,3.2.5,0,h,NA,s,NA,NA,h,398,NA,1999,NA,NA,398,2,legacy,1024,2,48000,-16,experiment,3,odd,4937,NA,NA,NA,140605,141812,96473,2927,NA,141817,2935,NA,NA,141921,142322,141920,Flanker Task,67,33892,75,yes,1024
Incongruent,SSHSS,89.47368421,89.47368421,451.9473684,451.9473684,black,legacy,legacy,legacy,0,uniform,1,undefined,1,h,0,0,0,75,75,75,75,0,0,75,0,0,0,75,75,75,9/9/18 20:49,1500,The main experiment item,yes,FlankerTask.osexp,E:/,no,mono,no,18,no,white,no,yes,768,legacy,75,75,E:/kg-subject-3.csv,legacy,Kafkaesque Koffka,3.2.5,0,h,NA,s,NA,NA,h,456,NA,1999,NA,NA,456,2,legacy,1024,2,48000,-16,experiment,3,odd,4937,NA,NA,NA,142336,143558,96473,2927,NA,143563,2935,NA,NA,143667,144127,143667,Flanker Task,68,34348,76,yes,1024
Congruent,SSSSS,89.61038961,89.61038961,450.7402597,450.7402597,black,legacy,legacy,legacy,0,uniform,1,undefined,1,s,0,0,0,76,76,76,76,0,0,76,0,0,0,76,76,76,9/9/18 20:49,1500,The main experiment item,yes,FlankerTask.osexp,E:/,no,mono,no,18,no,white,no,yes,768,legacy,76,76,E:/kg-subject-3.csv,legacy,Kafkaesque Koffka,3.2.5,0,s,NA,s,NA,NA,s,359,NA,1999,NA,NA,359,2,legacy,1024,2,48000,-16,experiment,3,odd,4937,NA,NA,NA,144141,145349,96473,2927,NA,145355,2935,NA,NA,145459,145822,145458,Flanker Task,69,34707,77,yes,1024
Incongruent,SSHSS,89.74358974,89.74358974,449.6025641,449.6025641,black,legacy,legacy,legacy,0,uniform,1,undefined,1,h,0,0,0,77,77,77,77,0,0,77,0,0,0,77,77,77,9/9/18 20:49,1500,The main experiment item,yes,FlankerTask.osexp,E:/,no,mono,no,18,no,white,no,yes,768,legacy,77,77,E:/kg-subject-3.csv,legacy,Kafkaesque Koffka,3.2.5,0,h,NA,s,NA,NA,h,362,NA,1999,NA,NA,362,2,legacy,1024,2,48000,-16,experiment,3,odd,4937,NA,NA,NA,145837,147042,96473,2927,NA,147048,2935,NA,NA,147160,147526,147160,Flanker Task,70,35069,78,yes,1024
Congruent,SSSSS,89.87341772,89.87341772,450.2658228,450.2658228,black,legacy,legacy,legacy,0,uniform,1,undefined,1,s,0,0,0,78,78,78,78,0,0,78,0,0,0,78,78,78,9/9/18 20:49,1500,The main experiment item,yes,FlankerTask.osexp,E:/,no,mono,no,18,no,white,no,yes,768,legacy,78,78,E:/kg-subject-3.csv,legacy,Kafkaesque Koffka,3.2.5,0,s,NA,s,NA,NA,s,502,NA,1999,NA,NA,502,2,legacy,1024,2,48000,-16,experiment,3,odd,4937,NA,NA,NA,147539,148733,96473,2927,NA,148738,2935,NA,NA,148851,149357,148850,Flanker Task,71,35571,79,yes,1024
Incongruent,HHSHH,90,90,450.6375,450.6375,black,legacy,legacy,legacy,0,uniform,1,undefined,1,s,0,0,0,79,79,79,79,0,0,79,0,0,0,79,79,79,9/9/18 20:49,1500,The main experiment item,yes,FlankerTask.osexp,E:/,no,mono,no,18,no,white,no,yes,768,legacy,79,79,E:/kg-subject-3.csv,legacy,Kafkaesque Koffka,3.2.5,0,s,NA,s,NA,NA,s,480,NA,1999,NA,NA,480,2,legacy,1024,2,48000,-16,experiment,3,odd,4937,NA,NA,NA,149370,150573,96473,2927,NA,150578,2935,NA,NA,150691,151175,150691,Flanker Task,72,36051,80,yes,1024
Congruent,SSSSS,90.12345679,90.12345679,450.7901235,450.7901235,black,legacy,legacy,legacy,0,uniform,1,undefined,1,s,0,0,0,80,80,80,80,0,0,80,0,0,0,80,80,80,9/9/18 20:49,600,The main experiment item,yes,FlankerTask.osexp,E:/,no,mono,no,18,no,white,no,yes,768,legacy,0,79,E:/kg-subject-3.csv,legacy,Kafkaesque Koffka,3.2.5,0,s,NA,s,h,NA,s,463,NA,1999,19170,NA,463,2,legacy,1024,2,48000,-16,experiment,3,odd,4937,171422,NA,NA,151188,171629,96473,2927,NA,171634,2935,152248,NA,171746,172213,171746,Flanker Task,73,36514,81,yes,1024
Incongruent,HHSHH,90.24390244,90.24390244,449.7195122,449.7195122,black,legacy,legacy,legacy,0,uniform,1,undefined,1,s,0,0,0,81,81,81,81,0,0,81,0,0,0,81,81,81,9/9/18 20:49,600,The main experiment item,yes,FlankerTask.osexp,E:/,no,mono,no,18,no,white,no,yes,768,legacy,1,79,E:/kg-subject-3.csv,legacy,Kafkaesque Koffka,3.2.5,0,s,NA,s,h,NA,s,363,NA,1999,19170,NA,363,2,legacy,1024,2,48000,-16,experiment,3,odd,4937,171422,NA,NA,172228,173420,96473,2927,NA,173425,2935,152248,NA,173537,173904,173537,Flanker Task,74,36877,82,yes,1024
Incongruent,HHSHH,89.15662651,89.15662651,448.6626506,448.6626506,black,legacy,legacy,legacy,0,uniform,0,undefined,0,s,0,0,0,82,82,82,82,0,0,82,0,0,0,82,82,82,9/9/18 20:49,600,The main experiment item,yes,FlankerTask.osexp,E:/,no,mono,no,18,no,white,no,yes,768,legacy,2,79,E:/kg-subject-3.csv,legacy,Kafkaesque Koffka,3.2.5,0,h,NA,s,h,NA,h,362,NA,1999,19170,NA,362,2,legacy,1024,2,48000,-16,experiment,3,odd,4937,171422,NA,NA,173919,175116,96473,2927,NA,175121,2935,152248,NA,175231,175597,175231,Flanker Task,74,37239,83,yes,1024
Congruent,HHHHH,88.0952381,88.0952381,448.4166667,448.4166667,black,legacy,legacy,legacy,0,uniform,0,undefined,0,h,0,0,0,83,83,83,83,0,0,83,0,0,0,83,83,83,9/9/18 20:49,600,The main experiment item,yes,FlankerTask.osexp,E:/,no,mono,no,18,no,white,no,yes,768,legacy,3,79,E:/kg-subject-3.csv,legacy,Kafkaesque Koffka,3.2.5,0,s,NA,s,h,NA,s,428,NA,1999,19170,NA,428,2,legacy,1024,2,48000,-16,experiment,3,odd,4937,171422,NA,NA,176124,177326,175610,2927,NA,177332,2935,152248,NA,177436,177867,177435,Flanker Task,74,37667,84,yes,1024
Incongruent,HHSHH,88.23529412,88.23529412,447.6470588,447.6470588,black,legacy,legacy,legacy,0,uniform,1,undefined,1,s,0,0,0,84,84,84,84,0,0,84,0,0,0,84,84,84,9/9/18 20:49,600,The main experiment item,yes,FlankerTask.osexp,E:/,no,mono,no,18,no,white,no,yes,768,legacy,4,79,E:/kg-subject-3.csv,legacy,Kafkaesque Koffka,3.2.5,0,s,NA,s,h,NA,s,383,NA,1999,19170,NA,383,2,legacy,1024,2,48000,-16,experiment,3,odd,4937,171422,NA,NA,178393,179581,177880,2927,NA,179587,2935,152248,NA,179700,180087,179699,Flanker Task,75,38050,85,yes,1024
Congruent,HHHHH,88.37209302,88.37209302,446.8953488,446.8953488,black,legacy,legacy,legacy,0,uniform,1,undefined,1,h,0,0,0,85,85,85,85,0,0,85,0,0,0,85,85,85,9/9/18 20:49,600,The main experiment item,yes,FlankerTask.osexp,E:/,no,mono,no,18,no,white,no,yes,768,legacy,5,79,E:/kg-subject-3.csv,legacy,Kafkaesque Koffka,3.2.5,0,h,NA,s,h,NA,h,383,NA,1999,19170,NA,383,2,legacy,1024,2,48000,-16,experiment,3,odd,4937,171422,NA,NA,180100,181299,177880,2927,NA,181304,2935,152248,NA,181416,181803,181416,Flanker Task,76,38433,86,yes,1024
Incongruent,HHSHH,88.50574713,88.50574713,445.8965517,445.8965517,black,legacy,legacy,legacy,0,uniform,1,undefined,1,s,0,0,0,86,86,86,86,0,0,86,0,0,0,86,86,86,9/9/18 20:49,600,The main experiment item,yes,FlankerTask.osexp,E:/,no,mono,no,18,no,white,no,yes,768,legacy,6,79,E:/kg-subject-3.csv,legacy,Kafkaesque Koffka,3.2.5,0,s,NA,s,h,NA,s,360,NA,1999,19170,NA,360,2,legacy,1024,2,48000,-16,experiment,3,odd,4937,171422,NA,NA,181816,183039,177880,2927,NA,183045,2935,152248,NA,183157,183521,183157,Flanker Task,77,38793,87,yes,1024
Incongruent,HHSHH,88.63636364,88.63636364,445.6022727,445.6022727,black,legacy,legacy,legacy,0,uniform,1,undefined,1,s,0,0,0,87,87,87,87,0,0,87,0,0,0,87,87,87,9/9/18 20:49,600,The main experiment item,yes,FlankerTask.osexp,E:/,no,mono,no,18,no,white,no,yes,768,legacy,7,79,E:/kg-subject-3.csv,legacy,Kafkaesque Koffka,3.2.5,0,s,NA,s,h,NA,s,420,NA,1999,19170,NA,420,2,legacy,1024,2,48000,-16,experiment,3,odd,4937,171422,NA,NA,183534,184742,177880,2927,NA,184748,2935,152248,NA,184852,185276,184851,Flanker Task,78,39213,88,yes,1024
Congruent,SSSSS,88.76404494,88.76404494,444.4157303,444.4157303,black,legacy,legacy,legacy,0,uniform,1,undefined,1,s,0,0,0,88,88,88,88,0,0,88,0,0,0,88,88,88,9/9/18 20:49,600,The main experiment item,yes,FlankerTask.osexp,E:/,no,mono,no,18,no,white,no,yes,768,legacy,8,79,E:/kg-subject-3.csv,legacy,Kafkaesque Koffka,3.2.5,0,s,NA,s,h,NA,s,340,NA,1999,19170,NA,340,2,legacy,1024,2,48000,-16,experiment,3,odd,4937,171422,NA,NA,185290,186502,177880,2927,NA,186508,2935,152248,NA,186612,186956,186611,Flanker Task,79,39553,89,yes,1024
Incongruent,SSHSS,87.77777778,87.77777778,443.6,443.6,black,legacy,legacy,legacy,0,uniform,0,undefined,0,h,0,0,0,89,89,89,89,0,0,89,0,0,0,89,89,89,9/9/18 20:49,600,The main experiment item,yes,FlankerTask.osexp,E:/,no,mono,no,18,no,white,no,yes,768,legacy,9,79,E:/kg-subject-3.csv,legacy,Kafkaesque Koffka,3.2.5,0,s,NA,s,h,NA,s,371,NA,1999,19170,NA,371,2,legacy,1024,2,48000,-16,experiment,3,odd,4937,171422,NA,NA,187051,188239,177880,2927,NA,188244,2935,152248,NA,188348,188723,188348,Flanker Task,79,39924,90,yes,1024
Congruent,SSSSS,87.91208791,87.91208791,442.8131868,442.8131868,black,legacy,legacy,legacy,0,uniform,1,undefined,1,s,0,0,0,90,90,90,90,0,0,90,0,0,0,90,90,90,9/9/18 20:49,600,The main experiment item,yes,FlankerTask.osexp,E:/,no,mono,no,18,no,white,no,yes,768,legacy,10,79,E:/kg-subject-3.csv,legacy,Kafkaesque Koffka,3.2.5,0,s,NA,s,h,NA,s,372,NA,1999,19170,NA,372,2,legacy,1024,2,48000,-16,experiment,3,odd,4937,171422,NA,NA,189251,190446,188738,2927,NA,190452,2935,152248,NA,190565,190941,190564,Flanker Task,80,40296,91,yes,1024
Congruent,SSSSS,88.04347826,88.04347826,442.9456522,442.9456522,black,legacy,legacy,legacy,0,uniform,1,undefined,1,s,0,0,0,91,91,91,91,0,0,91,0,0,0,91,91,91,9/9/18 20:49,600,The main experiment item,yes,FlankerTask.osexp,E:/,no,mono,no,18,no,white,no,yes,768,legacy,11,79,E:/kg-subject-3.csv,legacy,Kafkaesque Koffka,3.2.5,0,s,NA,s,h,NA,s,455,NA,1999,19170,NA,455,2,legacy,1024,2,48000,-16,experiment,3,odd,4937,171422,NA,NA,190955,192171,188738,2927,NA,192176,2935,152248,NA,192288,192746,192288,Flanker Task,81,40751,92,yes,1024
Congruent,HHHHH,88.17204301,88.17204301,442.2795699,442.2795699,black,legacy,legacy,legacy,0,uniform,1,undefined,1,h,0,0,0,92,92,92,92,0,0,92,0,0,0,92,92,92,9/9/18 20:49,600,The main experiment item,yes,FlankerTask.osexp,E:/,no,mono,no,18,no,white,no,yes,768,legacy,12,79,E:/kg-subject-3.csv,legacy,Kafkaesque Koffka,3.2.5,0,h,NA,s,h,NA,h,381,NA,1999,19170,NA,381,2,legacy,1024,2,48000,-16,experiment,3,odd,4937,171422,NA,NA,192760,193991,188738,2927,NA,193997,2935,152248,NA,194105,194490,194105,Flanker Task,82,41132,93,yes,1024
Incongruent,SSHSS,88.29787234,88.29787234,442.2553191,442.2553191,black,legacy,legacy,legacy,0,uniform,1,undefined,1,h,0,0,0,93,93,93,93,0,0,93,0,0,0,93,93,93,9/9/18 20:49,600,The main experiment item,yes,FlankerTask.osexp,E:/,no,mono,no,18,no,white,no,yes,768,legacy,13,79,E:/kg-subject-3.csv,legacy,Kafkaesque Koffka,3.2.5,0,h,NA,s,h,NA,h,440,NA,1999,19170,NA,440,2,legacy,1024,2,48000,-16,experiment,3,odd,4937,171422,NA,NA,194503,195716,188738,2927,NA,195722,2935,152248,NA,195826,196270,195825,Flanker Task,83,41572,94,yes,1024
Congruent,SSSSS,88.42105263,88.42105263,441.7263158,441.7263158,black,legacy,legacy,legacy,0,uniform,1,undefined,1,s,0,0,0,94,94,94,94,0,0,94,0,0,0,94,94,94,9/9/18 20:49,600,The main experiment item,yes,FlankerTask.osexp,E:/,no,mono,no,18,no,white,no,yes,768,legacy,14,79,E:/kg-subject-3.csv,legacy,Kafkaesque Koffka,3.2.5,0,s,NA,s,h,NA,s,392,NA,1999,19170,NA,392,2,legacy,1024,2,48000,-16,experiment,3,odd,4937,171422,NA,NA,196283,197492,188738,2927,NA,197498,2935,152248,NA,197602,197999,197602,Flanker Task,84,41964,95,yes,1024
Incongruent,HHSHH,88.54166667,88.54166667,442.1770833,442.1770833,black,legacy,legacy,legacy,0,uniform,1,undefined,1,s,0,0,0,95,95,95,95,0,0,95,0,0,0,95,95,95,9/9/18 20:49,600,The main experiment item,yes,FlankerTask.osexp,E:/,no,mono,no,18,no,white,no,yes,768,legacy,15,79,E:/kg-subject-3.csv,legacy,Kafkaesque Koffka,3.2.5,0,s,NA,s,h,NA,s,485,NA,1999,19170,NA,485,2,legacy,1024,2,48000,-16,experiment,3,odd,4937,171422,NA,NA,198012,199218,188738,2927,NA,199224,2935,152248,NA,199328,199817,199327,Flanker Task,85,42449,96,yes,1024
Incongruent,SSHSS,87.62886598,87.62886598,441.3814433,441.3814433,black,legacy,legacy,legacy,0,uniform,0,undefined,0,h,0,0,0,96,96,96,96,0,0,96,0,0,0,96,96,96,9/9/18 20:49,600,The main experiment item,yes,FlankerTask.osexp,E:/,no,mono,no,18,no,white,no,yes,768,legacy,16,79,E:/kg-subject-3.csv,legacy,Kafkaesque Koffka,3.2.5,0,s,NA,s,h,NA,s,365,NA,1999,19170,NA,365,2,legacy,1024,2,48000,-16,experiment,3,odd,4937,171422,NA,NA,199830,201040,188738,2927,NA,201046,2935,152248,NA,201151,201521,201151,Flanker Task,85,42814,97,yes,1024
Incongruent,SSHSS,87.75510204,87.75510204,441.4081633,441.4081633,black,legacy,legacy,legacy,0,uniform,1,undefined,1,h,0,0,0,97,97,97,97,0,0,97,0,0,0,97,97,97,9/9/18 20:49,600,The main experiment item,yes,FlankerTask.osexp,E:/,no,mono,no,18,no,white,no,yes,768,legacy,17,79,E:/kg-subject-3.csv,legacy,Kafkaesque Koffka,3.2.5,0,h,NA,s,h,NA,h,444,NA,1999,19170,NA,444,2,legacy,1024,2,48000,-16,experiment,3,odd,4937,171422,NA,NA,202047,203235,201533,2927,NA,203240,2935,152248,NA,203354,203802,203353,Flanker Task,86,43258,98,yes,1024
Congruent,SSSSS,87.87878788,87.87878788,441.1212121,441.1212121,black,legacy,legacy,legacy,0,uniform,1,undefined,1,s,0,0,0,98,98,98,98,0,0,98,0,0,0,98,98,98,9/9/18 20:49,600,The main experiment item,yes,FlankerTask.osexp,E:/,no,mono,no,18,no,white,no,yes,768,legacy,18,79,E:/kg-subject-3.csv,legacy,Kafkaesque Koffka,3.2.5,0,s,NA,s,h,NA,s,413,NA,1999,19170,NA,413,2,legacy,1024,2,48000,-16,experiment,3,odd,4937,171422,NA,NA,203817,205010,201533,2927,NA,205015,2935,152248,NA,205128,205545,205127,Flanker Task,87,43671,99,yes,1024
Congruent,SSSSS,87,87,441.23,441.23,black,legacy,legacy,legacy,0,uniform,0,undefined,0,s,0,0,0,99,99,99,99,0,0,99,0,0,0,99,99,99,9/9/18 20:49,600,The main experiment item,yes,FlankerTask.osexp,E:/,no,mono,no,18,no,white,no,yes,768,legacy,19,79,E:/kg-subject-3.csv,legacy,Kafkaesque Koffka,3.2.5,0,h,NA,s,h,NA,h,452,NA,1999,19170,NA,452,2,legacy,1024,2,48000,-16,experiment,3,odd,4937,171422,NA,NA,205559,206766,201533,2927,NA,206771,2935,152248,NA,206881,207337,206881,Flanker Task,87,44123,100,yes,1024
Congruent,HHHHH,87.12871287,87.12871287,440.6930693,440.6930693,black,legacy,legacy,legacy,0,uniform,1,undefined,1,h,0,0,0,100,100,100,100,0,0,100,0,0,0,100,100,100,9/9/18 20:49,600,The main experiment item,yes,FlankerTask.osexp,E:/,no,mono,no,18,no,white,no,yes,768,legacy,20,79,E:/kg-subject-3.csv,legacy,Kafkaesque Koffka,3.2.5,0,h,NA,s,h,NA,h,387,NA,1999,19170,NA,387,2,legacy,1024,2,48000,-16,experiment,3,odd,4937,171422,NA,NA,207857,209066,207350,2927,NA,209073,2935,152248,NA,209177,209569,209176,Flanker Task,88,44510,101,yes,1024
Incongruent,HHSHH,87.25490196,87.25490196,440.0196078,440.0196078,black,legacy,legacy,legacy,0,uniform,1,undefined,1,s,0,0,0,101,101,101,101,0,0,101,0,0,0,101,101,101,9/9/18 20:49,600,The main experiment item,yes,FlankerTask.osexp,E:/,no,mono,no,18,no,white,no,yes,768,legacy,21,79,E:/kg-subject-3.csv,legacy,Kafkaesque Koffka,3.2.5,0,s,NA,s,h,NA,s,372,NA,1999,19170,NA,372,2,legacy,1024,2,48000,-16,experiment,3,odd,4937,171422,NA,NA,209581,210791,207350,2927,NA,210796,2935,152248,NA,210909,211286,210909,Flanker Task,89,44882,102,yes,1024
Incongruent,SSHSS,87.37864078,87.37864078,440.8737864,440.8737864,black,legacy,legacy,legacy,0,uniform,1,undefined,1,h,0,0,0,102,102,102,102,0,0,102,0,0,0,102,102,102,9/9/18 20:49,600,The main experiment item,yes,FlankerTask.osexp,E:/,no,mono,no,18,no,white,no,yes,768,legacy,22,79,E:/kg-subject-3.csv,legacy,Kafkaesque Koffka,3.2.5,0,h,NA,s,h,NA,h,528,NA,1999,19170,NA,528,2,legacy,1024,2,48000,-16,experiment,3,odd,4937,171422,NA,NA,211300,212491,207350,2927,NA,212496,2935,152248,NA,212609,213141,212609,Flanker Task,90,45410,103,yes,1024
Congruent,SSSSS,87.5,87.5,440.0288462,440.0288462,black,legacy,legacy,legacy,0,uniform,1,undefined,1,s,0,0,0,103,103,103,103,0,0,103,0,0,0,103,103,103,9/9/18 20:49,600,The main experiment item,yes,FlankerTask.osexp,E:/,no,mono,no,18,no,white,no,yes,768,legacy,23,79,E:/kg-subject-3.csv,legacy,Kafkaesque Koffka,3.2.5,0,s,NA,s,h,NA,s,353,NA,1999,19170,NA,353,2,legacy,1024,2,48000,-16,experiment,3,odd,4937,171422,NA,NA,213154,214344,207350,2927,NA,214349,2935,152248,NA,214462,214820,214462,Flanker Task,91,45763,104,yes,1024
Congruent,SSSSS,87.61904762,87.61904762,439.3142857,439.3142857,black,legacy,legacy,legacy,0,uniform,1,undefined,1,s,0,0,0,104,104,104,104,0,0,104,0,0,0,104,104,104,9/9/18 20:49,600,The main experiment item,yes,FlankerTask.osexp,E:/,no,mono,no,18,no,white,no,yes,768,legacy,24,79,E:/kg-subject-3.csv,legacy,Kafkaesque Koffka,3.2.5,0,s,NA,s,h,NA,s,365,NA,1999,19170,NA,365,2,legacy,1024,2,48000,-16,experiment,3,odd,4937,171422,NA,NA,214832,216057,207350,2927,NA,216063,2935,152248,NA,216168,216538,216167,Flanker Task,92,46128,105,yes,1024
Congruent,SSSSS,87.73584906,87.73584906,438.0283019,438.0283019,black,legacy,legacy,legacy,0,uniform,1,undefined,1,s,0,0,0,105,105,105,105,0,0,105,0,0,0,105,105,105,9/9/18 20:49,600,The main experiment item,yes,FlankerTask.osexp,E:/,no,mono,no,18,no,white,no,yes,768,legacy,25,79,E:/kg-subject-3.csv,legacy,Kafkaesque Koffka,3.2.5,0,s,NA,s,h,NA,s,303,NA,1999,19170,NA,303,2,legacy,1024,2,48000,-16,experiment,3,odd,4937,171422,NA,NA,216551,217775,207350,2927,NA,217781,2935,152248,NA,217885,218192,217884,Flanker Task,93,46431,106,yes,1024
Congruent,HHHHH,87.85046729,87.85046729,437.4579439,437.4579439,black,legacy,legacy,legacy,0,uniform,1,undefined,1,h,0,0,0,106,106,106,106,0,0,106,0,0,0,106,106,106,9/9/18 20:49,600,The main experiment item,yes,FlankerTask.osexp,E:/,no,mono,no,18,no,white,no,yes,768,legacy,26,79,E:/kg-subject-3.csv,legacy,Kafkaesque Koffka,3.2.5,0,h,NA,s,h,NA,h,377,NA,1999,19170,NA,377,2,legacy,1024,2,48000,-16,experiment,3,odd,4937,171422,NA,NA,218207,219396,207350,2927,NA,219401,2935,152248,NA,219515,219896,219514,Flanker Task,94,46808,107,yes,1024
Incongruent,SSHSS,87.96296296,87.96296296,437.2962963,437.2962963,black,legacy,legacy,legacy,0,uniform,1,undefined,1,h,0,0,0,107,107,107,107,0,0,107,0,0,0,107,107,107,9/9/18 20:49,600,The main experiment item,yes,FlankerTask.osexp,E:/,no,mono,no,18,no,white,no,yes,768,legacy,27,79,E:/kg-subject-3.csv,legacy,Kafkaesque Koffka,3.2.5,0,h,NA,s,h,NA,h,420,NA,1999,19170,NA,420,2,legacy,1024,2,48000,-16,experiment,3,odd,4937,171422,NA,NA,219911,221102,207350,2927,NA,221107,2935,152248,NA,221215,221639,221215,Flanker Task,95,47228,108,yes,1024
Incongruent,SSHSS,88.0733945,88.0733945,437.4311927,437.4311927,black,legacy,legacy,legacy,0,uniform,1,undefined,1,h,0,0,0,108,108,108,108,0,0,108,0,0,0,108,108,108,9/9/18 20:49,600,The main experiment item,yes,FlankerTask.osexp,E:/,no,mono,no,18,no,white,no,yes,768,legacy,28,79,E:/kg-subject-3.csv,legacy,Kafkaesque Koffka,3.2.5,0,h,NA,s,h,NA,h,452,NA,1999,19170,NA,452,2,legacy,1024,2,48000,-16,experiment,3,odd,4937,171422,NA,NA,221652,222869,207350,2927,NA,222875,2935,152248,NA,222987,223443,222987,Flanker Task,96,47680,109,yes,1024
Incongruent,HHSHH,88.18181818,88.18181818,437.7363636,437.7363636,black,legacy,legacy,legacy,0,uniform,1,undefined,1,s,0,0,0,109,109,109,109,0,0,109,0,0,0,109,109,109,9/9/18 20:49,600,The main experiment item,yes,FlankerTask.osexp,E:/,no,mono,no,18,no,white,no,yes,768,legacy,29,79,E:/kg-subject-3.csv,legacy,Kafkaesque Koffka,3.2.5,0,s,NA,s,h,NA,s,471,NA,1999,19170,NA,471,2,legacy,1024,2,48000,-16,experiment,3,odd,4937,171422,NA,NA,223456,224667,207350,2927,NA,224673,2935,152248,NA,224786,225262,224785,Flanker Task,97,48151,110,yes,1024
Incongruent,SSHSS,88.28828829,88.28828829,437.5585586,437.5585586,black,legacy,legacy,legacy,0,uniform,1,undefined,1,h,0,0,0,110,110,110,110,0,0,110,0,0,0,110,110,110,9/9/18 20:49,600,The main experiment item,yes,FlankerTask.osexp,E:/,no,mono,no,18,no,white,no,yes,768,legacy,30,79,E:/kg-subject-3.csv,legacy,Kafkaesque Koffka,3.2.5,0,h,NA,s,h,NA,h,418,NA,1999,19170,NA,418,2,legacy,1024,2,48000,-16,experiment,3,odd,4937,171422,NA,NA,225275,226488,207350,2927,NA,226494,2935,152248,NA,226606,227029,226605,Flanker Task,98,48569,111,yes,1024
Incongruent,SSHSS,87.5,87.5,437.0625,437.0625,black,legacy,legacy,legacy,0,uniform,0,undefined,0,h,0,0,0,111,111,111,111,0,0,111,0,0,0,111,111,111,9/9/18 20:49,600,The main experiment item,yes,FlankerTask.osexp,E:/,no,mono,no,18,no,white,no,yes,768,legacy,31,79,E:/kg-subject-3.csv,legacy,Kafkaesque Koffka,3.2.5,0,s,NA,s,h,NA,s,382,NA,1999,19170,NA,382,2,legacy,1024,2,48000,-16,experiment,3,odd,4937,171422,NA,NA,227046,228270,207350,2927,NA,228275,2935,152248,NA,228383,228770,228383,Flanker Task,98,48951,112,yes,1024
Incongruent,HHSHH,86.72566372,86.72566372,436.8938053,436.8938053,black,legacy,legacy,legacy,0,uniform,0,undefined,0,s,0,0,0,112,112,112,112,0,0,112,0,0,0,112,112,112,9/9/18 20:49,600,The main experiment item,yes,FlankerTask.osexp,E:/,no,mono,no,18,no,white,no,yes,768,legacy,32,79,E:/kg-subject-3.csv,legacy,Kafkaesque Koffka,3.2.5,0,h,NA,s,h,NA,h,418,NA,1999,19170,NA,418,2,legacy,1024,2,48000,-16,experiment,3,odd,4937,171422,NA,NA,229296,230495,228783,2927,NA,230501,2935,152248,NA,230605,231027,230605,Flanker Task,98,49369,113,yes,1024
Incongruent,HHSHH,86.84210526,86.84210526,437.0263158,437.0263158,black,legacy,legacy,legacy,0,uniform,1,undefined,1,s,0,0,0,113,113,113,113,0,0,113,0,0,0,113,113,113,9/9/18 20:49,600,The main experiment item,yes,FlankerTask.osexp,E:/,no,mono,no,18,no,white,no,yes,768,legacy,33,79,E:/kg-subject-3.csv,legacy,Kafkaesque Koffka,3.2.5,0,s,NA,s,h,NA,s,452,NA,1999,19170,NA,452,2,legacy,1024,2,48000,-16,experiment,3,odd,4937,171422,NA,NA,231552,232744,231040,2927,NA,232749,2935,152248,NA,232863,233320,232862,Flanker Task,99,49821,114,yes,1024
Congruent,HHHHH,86.95652174,86.95652174,436.9478261,436.9478261,black,legacy,legacy,legacy,0,uniform,1,undefined,1,h,0,0,0,114,114,114,114,0,0,114,0,0,0,114,114,114,9/9/18 20:49,600,The main experiment item,yes,FlankerTask.osexp,E:/,no,mono,no,18,no,white,no,yes,768,legacy,34,79,E:/kg-subject-3.csv,legacy,Kafkaesque Koffka,3.2.5,0,h,NA,s,h,NA,h,428,NA,1999,19170,NA,428,2,legacy,1024,2,48000,-16,experiment,3,odd,4937,171422,NA,NA,233335,234525,231040,2927,NA,234531,2935,152248,NA,234643,235076,234643,Flanker Task,100,50249,115,yes,1024
Incongruent,SSHSS,86.20689655,86.20689655,436.5603448,436.5603448,black,legacy,legacy,legacy,0,uniform,0,undefined,0,h,0,0,0,115,115,115,115,0,0,115,0,0,0,115,115,115,9/9/18 20:49,600,The main experiment item,yes,FlankerTask.osexp,E:/,no,mono,no,18,no,white,no,yes,768,legacy,35,79,E:/kg-subject-3.csv,legacy,Kafkaesque Koffka,3.2.5,0,s,NA,s,h,NA,s,392,NA,1999,19170,NA,392,2,legacy,1024,2,48000,-16,experiment,3,odd,4937,171422,NA,NA,235088,236303,231040,2927,NA,236309,2935,152248,NA,236421,236817,236421,Flanker Task,100,50641,116,yes,1024
Congruent,HHHHH,86.32478632,86.32478632,436.3846154,436.3846154,black,legacy,legacy,legacy,0,uniform,1,undefined,1,h,0,0,0,116,116,116,116,0,0,116,0,0,0,116,116,116,9/9/18 20:49,600,The main experiment item,yes,FlankerTask.osexp,E:/,no,mono,no,18,no,white,no,yes,768,legacy,36,79,E:/kg-subject-3.csv,legacy,Kafkaesque Koffka,3.2.5,0,h,NA,s,h,NA,h,416,NA,1999,19170,NA,416,2,legacy,1024,2,48000,-16,experiment,3,odd,4937,171422,NA,NA,237343,238555,236830,2927,NA,238561,2935,152248,NA,238665,239086,238664,Flanker Task,101,51057,117,yes,1024
Congruent,HHHHH,86.44067797,86.44067797,436.8220339,436.8220339,black,legacy,legacy,legacy,0,uniform,1,undefined,1,h,0,0,0,117,117,117,117,0,0,117,0,0,0,117,117,117,9/9/18 20:49,600,The main experiment item,yes,FlankerTask.osexp,E:/,no,mono,no,18,no,white,no,yes,768,legacy,37,79,E:/kg-subject-3.csv,legacy,Kafkaesque Koffka,3.2.5,0,h,NA,s,h,NA,h,488,NA,1999,19170,NA,488,2,legacy,1024,2,48000,-16,experiment,3,odd,4937,171422,NA,NA,239099,240296,236830,2927,NA,240301,2935,152248,NA,240411,240903,240410,Flanker Task,102,51545,118,yes,1024
Congruent,HHHHH,86.55462185,86.55462185,436.4957983,436.4957983,black,legacy,legacy,legacy,0,uniform,1,undefined,1,h,0,0,0,118,118,118,118,0,0,118,0,0,0,118,118,118,9/9/18 20:49,600,The main experiment item,yes,FlankerTask.osexp,E:/,no,mono,no,18,no,white,no,yes,768,legacy,38,79,E:/kg-subject-3.csv,legacy,Kafkaesque Koffka,3.2.5,0,h,NA,s,h,NA,h,398,NA,1999,19170,NA,398,2,legacy,1024,2,48000,-16,experiment,3,odd,4937,171422,NA,NA,240916,242124,236830,2927,NA,242130,2935,152248,NA,242242,242644,242242,Flanker Task,103,51943,119,yes,1024
Congruent,HHHHH,86.66666667,86.66666667,435.9083333,435.9083333,black,legacy,legacy,legacy,0,uniform,1,undefined,1,h,0,0,0,119,119,119,119,0,0,119,0,0,0,119,119,119,9/9/18 20:49,600,The main experiment item,yes,FlankerTask.osexp,E:/,no,mono,no,18,no,white,no,yes,768,legacy,39,79,E:/kg-subject-3.csv,legacy,Kafkaesque Koffka,3.2.5,0,h,NA,s,h,NA,h,366,NA,1999,19170,NA,366,2,legacy,1024,2,48000,-16,experiment,3,odd,4937,171422,NA,NA,242657,243848,236830,2927,NA,243854,2935,152248,NA,243966,244337,243966,Flanker Task,104,52309,120,yes,1024
Congruent,SSSSS,86.7768595,86.7768595,435.3140496,435.3140496,black,legacy,legacy,legacy,0,uniform,1,undefined,1,s,0,0,0,120,120,120,120,0,0,120,0,0,0,120,120,120,9/9/18 20:49,600,The main experiment item,yes,FlankerTask.osexp,E:/,no,mono,no,18,no,white,no,yes,768,legacy,40,79,E:/kg-subject-3.csv,legacy,Kafkaesque Koffka,3.2.5,0,s,NA,s,h,NA,s,364,NA,1999,19170,NA,364,2,legacy,1024,2,48000,-16,experiment,3,odd,4937,171422,NA,NA,244350,245566,236830,2927,NA,245571,2935,152248,NA,245684,246053,245684,Flanker Task,105,52673,121,yes,1024
Congruent,HHHHH,86.8852459,86.8852459,434.8852459,434.8852459,black,legacy,legacy,legacy,0,uniform,1,undefined,1,h,0,0,0,121,121,121,121,0,0,121,0,0,0,121,121,121,9/9/18 20:49,600,The main experiment item,yes,FlankerTask.osexp,E:/,no,mono,no,18,no,white,no,yes,768,legacy,41,79,E:/kg-subject-3.csv,legacy,Kafkaesque Koffka,3.2.5,0,h,NA,s,h,NA,h,383,NA,1999,19170,NA,383,2,legacy,1024,2,48000,-16,experiment,3,odd,4937,171422,NA,NA,246069,247285,236830,2927,NA,247292,2935,152248,NA,247396,247784,247396,Flanker Task,106,53056,122,yes,1024
Congruent,HHHHH,86.99186992,86.99186992,434.495935,434.495935,black,legacy,legacy,legacy,0,uniform,1,undefined,1,h,0,0,0,122,122,122,122,0,0,122,0,0,0,122,122,122,9/9/18 20:49,600,The main experiment item,yes,FlankerTask.osexp,E:/,no,mono,no,18,no,white,no,yes,768,legacy,42,79,E:/kg-subject-3.csv,legacy,Kafkaesque Koffka,3.2.5,0,h,NA,s,h,NA,h,387,NA,1999,19170,NA,387,2,legacy,1024,2,48000,-16,experiment,3,odd,4937,171422,NA,NA,247798,248986,236830,2927,NA,248992,2935,152248,NA,249096,249488,249096,Flanker Task,107,53443,123,yes,1024
Congruent,HHHHH,87.09677419,87.09677419,434.2741935,434.2741935,black,legacy,legacy,legacy,0,uniform,1,undefined,1,h,0,0,0,123,123,123,123,0,0,123,0,0,0,123,123,123,9/9/18 20:49,600,The main experiment item,yes,FlankerTask.osexp,E:/,no,mono,no,18,no,white,no,yes,768,legacy,43,79,E:/kg-subject-3.csv,legacy,Kafkaesque Koffka,3.2.5,0,h,NA,s,h,NA,h,407,NA,1999,19170,NA,407,2,legacy,1024,2,48000,-16,experiment,3,odd,4937,171422,NA,NA,249501,250701,236830,2927,NA,250707,2935,152248,NA,250819,251231,250819,Flanker Task,108,53850,124,yes,1024
Congruent,SSSSS,87.2,87.2,433.432,433.432,black,legacy,legacy,legacy,0,uniform,1,undefined,1,s,0,0,0,124,124,124,124,0,0,124,0,0,0,124,124,124,9/9/18 20:49,600,The main experiment item,yes,FlankerTask.osexp,E:/,no,mono,no,18,no,white,no,yes,768,legacy,44,79,E:/kg-subject-3.csv,legacy,Kafkaesque Koffka,3.2.5,0,s,NA,s,h,NA,s,329,NA,1999,19170,NA,329,2,legacy,1024,2,48000,-16,experiment,3,odd,4937,171422,NA,NA,251244,252433,236830,2927,NA,252438,2935,152248,NA,252552,252885,252551,Flanker Task,109,54179,125,yes,1024
Incongruent,HHSHH,87.3015873,87.3015873,432.9444444,432.9444444,black,legacy,legacy,legacy,0,uniform,1,undefined,1,s,0,0,0,125,125,125,125,0,0,125,0,0,0,125,125,125,9/9/18 20:49,600,The main experiment item,yes,FlankerTask.osexp,E:/,no,mono,no,18,no,white,no,yes,768,legacy,45,79,E:/kg-subject-3.csv,legacy,Kafkaesque Koffka,3.2.5,0,s,NA,s,h,NA,s,372,NA,1999,19170,NA,372,2,legacy,1024,2,48000,-16,experiment,3,odd,4937,171422,NA,NA,252898,254121,236830,2927,NA,254126,2935,152248,NA,254238,254615,254237,Flanker Task,110,54551,126,yes,1024
Incongruent,HHSHH,87.4015748,87.4015748,432.7716535,432.7716535,black,legacy,legacy,legacy,0,uniform,1,undefined,1,s,0,0,0,126,126,126,126,0,0,126,0,0,0,126,126,126,9/9/18 20:49,600,The main experiment item,yes,FlankerTask.osexp,E:/,no,mono,no,18,no,white,no,yes,768,legacy,46,79,E:/kg-subject-3.csv,legacy,Kafkaesque Koffka,3.2.5,0,s,NA,s,h,NA,s,411,NA,1999,19170,NA,411,2,legacy,1024,2,48000,-16,experiment,3,odd,4937,171422,NA,NA,254628,255844,236830,2927,NA,255850,2935,152248,NA,255954,256371,255953,Flanker Task,111,54962,127,yes,1024
Congruent,SSSSS,87.5,87.5,432.6171875,432.6171875,black,legacy,legacy,legacy,0,uniform,1,undefined,1,s,0,0,0,127,127,127,127,0,0,127,0,0,0,127,127,127,9/9/18 20:49,600,The main experiment item,yes,FlankerTask.osexp,E:/,no,mono,no,18,no,white,no,yes,768,legacy,47,79,E:/kg-subject-3.csv,legacy,Kafkaesque Koffka,3.2.5,0,s,NA,s,h,NA,s,413,NA,1999,19170,NA,413,2,legacy,1024,2,48000,-16,experiment,3,odd,4937,171422,NA,NA,256384,257597,236830,2927,NA,257602,2935,152248,NA,257706,258125,257705,Flanker Task,112,55375,128,yes,1024
Incongruent,SSHSS,86.82170543,86.82170543,432.0697674,432.0697674,black,legacy,legacy,legacy,0,uniform,0,undefined,0,h,0,0,0,128,128,128,128,0,0,128,0,0,0,128,128,128,9/9/18 20:49,600,The main experiment item,yes,FlankerTask.osexp,E:/,no,mono,no,18,no,white,no,yes,768,legacy,48,79,E:/kg-subject-3.csv,legacy,Kafkaesque Koffka,3.2.5,0,s,NA,s,h,NA,s,362,NA,1999,19170,NA,362,2,legacy,1024,2,48000,-16,experiment,3,odd,4937,171422,NA,NA,258137,259353,236830,2927,NA,259359,2935,152248,NA,259463,259830,259463,Flanker Task,112,55737,129,yes,1024
Incongruent,HHSHH,86.92307692,86.92307692,432.5461538,432.5461538,black,legacy,legacy,legacy,0,uniform,1,undefined,1,s,0,0,0,129,129,129,129,0,0,129,0,0,0,129,129,129,9/9/18 20:49,600,The main experiment item,yes,FlankerTask.osexp,E:/,no,mono,no,18,no,white,no,yes,768,legacy,49,79,E:/kg-subject-3.csv,legacy,Kafkaesque Koffka,3.2.5,0,s,NA,s,h,NA,s,494,NA,1999,19170,NA,494,2,legacy,1024,2,48000,-16,experiment,3,odd,4937,171422,NA,NA,260355,261554,259842,2927,NA,261559,2935,152248,NA,261671,262171,261671,Flanker Task,113,56231,130,yes,1024
Congruent,HHHHH,87.02290076,87.02290076,432.3129771,432.3129771,black,legacy,legacy,legacy,0,uniform,1,undefined,1,h,0,0,0,130,130,130,130,0,0,130,0,0,0,130,130,130,9/9/18 20:49,600,The main experiment item,yes,FlankerTask.osexp,E:/,no,mono,no,18,no,white,no,yes,768,legacy,50,79,E:/kg-subject-3.csv,legacy,Kafkaesque Koffka,3.2.5,0,h,NA,s,h,NA,h,402,NA,1999,19170,NA,402,2,legacy,1024,2,48000,-16,experiment,3,odd,4937,171422,NA,NA,262186,263377,259842,2927,NA,263383,2935,152248,NA,263496,263903,263495,Flanker Task,114,56633,131,yes,1024
Incongruent,SSHSS,86.36363636,86.36363636,431.5681818,431.5681818,black,legacy,legacy,legacy,0,uniform,0,undefined,0,h,0,0,0,131,131,131,131,0,0,131,0,0,0,131,131,131,9/9/18 20:49,600,The main experiment item,yes,FlankerTask.osexp,E:/,no,mono,no,18,no,white,no,yes,768,legacy,51,79,E:/kg-subject-3.csv,legacy,Kafkaesque Koffka,3.2.5,0,s,NA,s,h,NA,s,334,NA,1999,19170,NA,334,2,legacy,1024,2,48000,-16,experiment,3,odd,4937,171422,NA,NA,263916,265117,259842,2927,NA,265122,2935,152248,NA,265231,265570,265231,Flanker Task,114,56967,132,yes,1024
Congruent,SSSSS,86.46616541,86.46616541,431.075188,431.075188,black,legacy,legacy,legacy,0,uniform,1,undefined,1,s,0,0,0,132,132,132,132,0,0,132,0,0,0,132,132,132,9/9/18 20:49,600,The main experiment item,yes,FlankerTask.osexp,E:/,no,mono,no,18,no,white,no,yes,768,legacy,52,79,E:/kg-subject-3.csv,legacy,Kafkaesque Koffka,3.2.5,0,s,NA,s,h,NA,s,366,NA,1999,19170,NA,366,2,legacy,1024,2,48000,-16,experiment,3,odd,4937,171422,NA,NA,266096,267307,265583,2927,NA,267313,2935,152248,NA,267417,267788,267416,Flanker Task,115,57333,133,yes,1024
Congruent,HHHHH,86.56716418,86.56716418,430.7761194,430.7761194,black,legacy,legacy,legacy,0,uniform,1,undefined,1,h,0,0,0,133,133,133,133,0,0,133,0,0,0,133,133,133,9/9/18 20:49,600,The main experiment item,yes,FlankerTask.osexp,E:/,no,mono,no,18,no,white,no,yes,768,legacy,53,79,E:/kg-subject-3.csv,legacy,Kafkaesque Koffka,3.2.5,0,h,NA,s,h,NA,h,391,NA,1999,19170,NA,391,2,legacy,1024,2,48000,-16,experiment,3,odd,4937,171422,NA,NA,267806,268991,265583,2927,NA,268997,2935,152248,NA,269109,269505,269109,Flanker Task,116,57724,134,yes,1024
Incongruent,HHSHH,85.92592593,85.92592593,430.7555556,430.7555556,black,legacy,legacy,legacy,0,uniform,0,undefined,0,s,0,0,0,134,134,134,134,0,0,134,0,0,0,134,134,134,9/9/18 20:49,600,The main experiment item,yes,FlankerTask.osexp,E:/,no,mono,no,18,no,white,no,yes,768,legacy,54,79,E:/kg-subject-3.csv,legacy,Kafkaesque Koffka,3.2.5,0,h,NA,s,h,NA,h,428,NA,1999,19170,NA,428,2,legacy,1024,2,48000,-16,experiment,3,odd,4937,171422,NA,NA,269518,270709,265583,2927,NA,270715,2935,152248,NA,270827,271260,270827,Flanker Task,116,58152,135,yes,1024
Incongruent,HHSHH,86.02941176,86.02941176,431.2867647,431.2867647,black,legacy,legacy,legacy,0,uniform,1,undefined,1,s,0,0,0,135,135,135,135,0,0,135,0,0,0,135,135,135,9/9/18 20:49,600,The main experiment item,yes,FlankerTask.osexp,E:/,no,mono,no,18,no,white,no,yes,768,legacy,55,79,E:/kg-subject-3.csv,legacy,Kafkaesque Koffka,3.2.5,0,s,NA,s,h,NA,s,503,NA,1999,19170,NA,503,2,legacy,1024,2,48000,-16,experiment,3,odd,4937,171422,NA,NA,271777,272990,271273,2927,NA,272997,2935,152248,NA,273109,273618,273109,Flanker Task,117,58655,136,yes,1024
Congruent,SSSSS,86.13138686,86.13138686,431.3284672,431.3284672,black,legacy,legacy,legacy,0,uniform,1,undefined,1,s,0,0,0,136,136,136,136,0,0,136,0,0,0,136,136,136,9/9/18 20:49,600,The main experiment item,yes,FlankerTask.osexp,E:/,no,mono,no,18,no,white,no,yes,768,legacy,56,79,E:/kg-subject-3.csv,legacy,Kafkaesque Koffka,3.2.5,0,s,NA,s,h,NA,s,437,NA,1999,19170,NA,437,2,legacy,1024,2,48000,-16,experiment,3,odd,4937,171422,NA,NA,273631,274850,271273,2927,NA,274855,2935,152248,NA,274967,275409,274967,Flanker Task,118,59092,137,yes,1024
Congruent,SSSSS,86.23188406,86.23188406,431.0507246,431.0507246,black,legacy,legacy,legacy,0,uniform,1,undefined,1,s,0,0,0,137,137,137,137,0,0,137,0,0,0,137,137,137,9/9/18 20:49,600,The main experiment item,yes,FlankerTask.osexp,E:/,no,mono,no,18,no,white,no,yes,768,legacy,57,79,E:/kg-subject-3.csv,legacy,Kafkaesque Koffka,3.2.5,0,s,NA,s,h,NA,s,393,NA,1999,19170,NA,393,2,legacy,1024,2,48000,-16,experiment,3,odd,4937,171422,NA,NA,275425,276647,271273,2927,NA,276653,2935,152248,NA,276765,277164,276764,Flanker Task,119,59485,138,yes,1024
Incongruent,SSHSS,86.33093525,86.33093525,430.9640288,430.9640288,black,legacy,legacy,legacy,0,uniform,1,undefined,1,h,0,0,0,138,138,138,138,0,0,138,0,0,0,138,138,138,9/9/18 20:49,600,The main experiment item,yes,FlankerTask.osexp,E:/,no,mono,no,18,no,white,no,yes,768,legacy,58,79,E:/kg-subject-3.csv,legacy,Kafkaesque Koffka,3.2.5,0,h,NA,s,h,NA,h,419,NA,1999,19170,NA,419,2,legacy,1024,2,48000,-16,experiment,3,odd,4937,171422,NA,NA,277178,278389,271273,2927,NA,278395,2935,152248,NA,278507,278931,278507,Flanker Task,120,59904,139,yes,1024
Incongruent,SSHSS,86.42857143,86.42857143,430.8285714,430.8285714,black,legacy,legacy,legacy,0,uniform,1,undefined,1,h,0,0,0,139,139,139,139,0,0,139,0,0,0,139,139,139,9/9/18 20:49,600,The main experiment item,yes,FlankerTask.osexp,E:/,no,mono,no,18,no,white,no,yes,768,legacy,59,79,E:/kg-subject-3.csv,legacy,Kafkaesque Koffka,3.2.5,0,h,NA,s,h,NA,h,412,NA,1999,19170,NA,412,2,legacy,1024,2,48000,-16,experiment,3,odd,4937,171422,NA,NA,278945,280159,271273,2927,NA,280165,2935,152248,NA,280268,280686,280268,Flanker Task,121,60316,140,yes,1024
Incongruent,SSHSS,86.5248227,86.5248227,430.7092199,430.7092199,black,legacy,legacy,legacy,0,uniform,1,undefined,1,h,0,0,0,140,140,140,140,0,0,140,0,0,0,140,140,140,9/9/18 20:49,600,The main experiment item,yes,FlankerTask.osexp,E:/,no,mono,no,18,no,white,no,yes,768,legacy,60,79,E:/kg-subject-3.csv,legacy,Kafkaesque Koffka,3.2.5,0,h,NA,s,h,NA,h,414,NA,1999,19170,NA,414,2,legacy,1024,2,48000,-16,experiment,3,odd,4937,171422,NA,NA,280699,281910,271273,2927,NA,281916,2935,152248,NA,282020,282440,282019,Flanker Task,122,60730,141,yes,1024
Congruent,HHHHH,86.61971831,86.61971831,430.7816901,430.7816901,black,legacy,legacy,legacy,0,uniform,1,undefined,1,h,0,0,0,141,141,141,141,0,0,141,0,0,0,141,141,141,9/9/18 20:49,600,The main experiment item,yes,FlankerTask.osexp,E:/,no,mono,no,18,no,white,no,yes,768,legacy,61,79,E:/kg-subject-3.csv,legacy,Kafkaesque Koffka,3.2.5,0,h,NA,s,h,NA,h,441,NA,1999,19170,NA,441,2,legacy,1024,2,48000,-16,experiment,3,odd,4937,171422,NA,NA,282453,283648,271273,2927,NA,283653,2935,152248,NA,283758,284205,283758,Flanker Task,123,61171,142,yes,1024
Congruent,HHHHH,86.71328671,86.71328671,430.2097902,430.2097902,black,legacy,legacy,legacy,0,uniform,1,undefined,1,h,0,0,0,142,142,142,142,0,0,142,0,0,0,142,142,142,9/9/18 20:49,600,The main experiment item,yes,FlankerTask.osexp,E:/,no,mono,no,18,no,white,no,yes,768,legacy,62,79,E:/kg-subject-3.csv,legacy,Kafkaesque Koffka,3.2.5,0,h,NA,s,h,NA,h,349,NA,1999,19170,NA,349,2,legacy,1024,2,48000,-16,experiment,3,odd,4937,171422,NA,NA,284220,285431,271273,2927,NA,285436,2935,152248,NA,285545,285900,285545,Flanker Task,124,61520,143,yes,1024
Incongruent,HHSHH,86.80555556,86.80555556,430.3125,430.3125,black,legacy,legacy,legacy,0,uniform,1,undefined,1,s,0,0,0,143,143,143,143,0,0,143,0,0,0,143,143,143,9/9/18 20:49,600,The main experiment item,yes,FlankerTask.osexp,E:/,no,mono,no,18,no,white,no,yes,768,legacy,63,79,E:/kg-subject-3.csv,legacy,Kafkaesque Koffka,3.2.5,0,s,NA,s,h,NA,s,445,NA,1999,19170,NA,445,2,legacy,1024,2,48000,-16,experiment,3,odd,4937,171422,NA,NA,285912,287103,271273,2927,NA,287108,2935,152248,NA,287216,287666,287216,Flanker Task,125,61965,144,yes,1024
Congruent,SSSSS,86.89655172,86.89655172,429.6344828,429.6344828,black,legacy,legacy,legacy,0,uniform,1,undefined,1,s,0,0,0,144,144,144,144,0,0,144,0,0,0,144,144,144,9/9/18 20:49,600,The main experiment item,yes,FlankerTask.osexp,E:/,no,mono,no,18,no,white,no,yes,768,legacy,64,79,E:/kg-subject-3.csv,legacy,Kafkaesque Koffka,3.2.5,0,s,NA,s,h,NA,s,332,NA,1999,19170,NA,332,2,legacy,1024,2,48000,-16,experiment,3,odd,4937,171422,NA,NA,287736,288927,271273,2927,NA,288932,2935,152248,NA,289045,289383,289044,Flanker Task,126,62297,145,yes,1024
Incongruent,HHSHH,86.98630137,86.98630137,429.5068493,429.5068493,black,legacy,legacy,legacy,0,uniform,1,undefined,1,s,0,0,0,145,145,145,145,0,0,145,0,0,0,145,145,145,9/9/18 20:49,600,The main experiment item,yes,FlankerTask.osexp,E:/,no,mono,no,18,no,white,no,yes,768,legacy,65,79,E:/kg-subject-3.csv,legacy,Kafkaesque Koffka,3.2.5,0,s,NA,s,h,NA,s,411,NA,1999,19170,NA,411,2,legacy,1024,2,48000,-16,experiment,3,odd,4937,171422,NA,NA,289398,290616,271273,2927,NA,290622,2935,152248,NA,290735,291152,290734,Flanker Task,127,62708,146,yes,1024
Congruent,HHHHH,87.07482993,87.07482993,429.2176871,429.2176871,black,legacy,legacy,legacy,0,uniform,1,undefined,1,h,0,0,0,146,146,146,146,0,0,146,0,0,0,146,146,146,9/9/18 20:49,600,The main experiment item,yes,FlankerTask.osexp,E:/,no,mono,no,18,no,white,no,yes,768,legacy,66,79,E:/kg-subject-3.csv,legacy,Kafkaesque Koffka,3.2.5,0,h,NA,s,h,NA,h,387,NA,1999,19170,NA,387,2,legacy,1024,2,48000,-16,experiment,3,odd,4937,171422,NA,NA,291166,292381,271273,2927,NA,292387,2935,152248,NA,292500,292894,292499,Flanker Task,128,63095,147,yes,1024
Congruent,SSSSS,87.16216216,87.16216216,429.1621622,429.1621622,black,legacy,legacy,legacy,0,uniform,1,undefined,1,s,0,0,0,147,147,147,147,0,0,147,0,0,0,147,147,147,9/9/18 20:49,600,The main experiment item,yes,FlankerTask.osexp,E:/,no,mono,no,18,no,white,no,yes,768,legacy,67,79,E:/kg-subject-3.csv,legacy,Kafkaesque Koffka,3.2.5,0,s,NA,s,h,NA,s,421,NA,1999,19170,NA,421,2,legacy,1024,2,48000,-16,experiment,3,odd,4937,171422,NA,NA,292907,294122,271273,2927,NA,294128,2935,152248,NA,294233,294660,294233,Flanker Task,129,63516,148,yes,1024
Incongruent,SSHSS,87.24832215,87.24832215,429.3087248,429.3087248,black,legacy,legacy,legacy,0,uniform,1,undefined,1,h,0,0,0,148,148,148,148,0,0,148,0,0,0,148,148,148,9/9/18 20:49,600,The main experiment item,yes,FlankerTask.osexp,E:/,no,mono,no,18,no,white,no,yes,768,legacy,68,79,E:/kg-subject-3.csv,legacy,Kafkaesque Koffka,3.2.5,0,h,NA,s,h,NA,h,451,NA,1999,19170,NA,451,2,legacy,1024,2,48000,-16,experiment,3,odd,4937,171422,NA,NA,294674,295886,271273,2927,NA,295892,2935,152248,NA,295996,296453,295995,Flanker Task,130,63967,149,yes,1024
Congruent,SSSSS,87.33333333,87.33333333,429.54,429.54,black,legacy,legacy,legacy,0,uniform,1,undefined,1,s,0,0,0,149,149,149,149,0,0,149,0,0,0,149,149,149,9/9/18 20:49,600,The main experiment item,yes,FlankerTask.osexp,E:/,no,mono,no,18,no,white,no,yes,768,legacy,69,79,E:/kg-subject-3.csv,legacy,Kafkaesque Koffka,3.2.5,0,s,NA,s,h,NA,s,464,NA,1999,19170,NA,464,2,legacy,1024,2,48000,-16,experiment,3,odd,4937,171422,NA,NA,296466,297677,271273,2927,NA,297683,2935,152248,NA,297787,298257,297786,Flanker Task,131,64431,150,yes,1024
Incongruent,HHSHH,87.41721854,87.41721854,429.6225166,429.6225166,black,legacy,legacy,legacy,0,uniform,1,undefined,1,s,0,0,0,150,150,150,150,0,0,150,0,0,0,150,150,150,9/9/18 20:49,600,The main experiment item,yes,FlankerTask.osexp,E:/,no,mono,no,18,no,white,no,yes,768,legacy,70,79,E:/kg-subject-3.csv,legacy,Kafkaesque Koffka,3.2.5,0,s,NA,s,h,NA,s,442,NA,1999,19170,NA,442,2,legacy,1024,2,48000,-16,experiment,3,odd,4937,171422,NA,NA,298271,299479,271273,2927,NA,299484,2935,152248,NA,299589,300037,299588,Flanker Task,132,64873,151,yes,1024
Incongruent,SSHSS,87.5,87.5,429.7894737,429.7894737,black,legacy,legacy,legacy,0,uniform,1,undefined,1,h,0,0,0,151,151,151,151,0,0,151,0,0,0,151,151,151,9/9/18 20:49,600,The main experiment item,yes,FlankerTask.osexp,E:/,no,mono,no,18,no,white,no,yes,768,legacy,71,79,E:/kg-subject-3.csv,legacy,Kafkaesque Koffka,3.2.5,0,h,NA,s,h,NA,h,455,NA,1999,19170,NA,455,2,legacy,1024,2,48000,-16,experiment,3,odd,4937,171422,NA,NA,300050,301258,271273,2927,NA,301264,2935,152248,NA,301368,301829,301367,Flanker Task,133,65328,152,yes,1024
Congruent,SSSSS,87.58169935,87.58169935,429.9084967,429.9084967,black,legacy,legacy,legacy,0,uniform,1,undefined,1,s,0,0,0,152,152,152,152,0,0,152,0,0,0,152,152,152,9/9/18 20:49,600,The main experiment item,yes,FlankerTask.osexp,E:/,no,mono,no,18,no,white,no,yes,768,legacy,72,79,E:/kg-subject-3.csv,legacy,Kafkaesque Koffka,3.2.5,0,s,NA,s,h,NA,s,448,NA,1999,19170,NA,448,2,legacy,1024,2,48000,-16,experiment,3,odd,4937,171422,NA,NA,301842,303032,271273,2927,NA,303037,2935,152248,NA,303142,303596,303142,Flanker Task,134,65776,153,yes,1024
Incongruent,HHSHH,87.66233766,87.66233766,430.1038961,430.1038961,black,legacy,legacy,legacy,0,uniform,1,undefined,1,s,0,0,0,153,153,153,153,0,0,153,0,0,0,153,153,153,9/9/18 20:49,600,The main experiment item,yes,FlankerTask.osexp,E:/,no,mono,no,18,no,white,no,yes,768,legacy,73,79,E:/kg-subject-3.csv,legacy,Kafkaesque Koffka,3.2.5,0,s,NA,s,h,NA,s,460,NA,1999,19170,NA,460,2,legacy,1024,2,48000,-16,experiment,3,odd,4937,171422,NA,NA,303609,304812,271273,2927,NA,304818,2935,152248,NA,304922,305388,304922,Flanker Task,135,66236,154,yes,1024
Congruent,HHHHH,87.74193548,87.74193548,430.083871,430.083871,black,legacy,legacy,legacy,0,uniform,1,undefined,1,h,0,0,0,154,154,154,154,0,0,154,0,0,0,154,154,154,9/9/18 20:49,600,The main experiment item,yes,FlankerTask.osexp,E:/,no,mono,no,18,no,white,no,yes,768,legacy,74,79,E:/kg-subject-3.csv,legacy,Kafkaesque Koffka,3.2.5,0,h,NA,s,h,NA,h,427,NA,1999,19170,NA,427,2,legacy,1024,2,48000,-16,experiment,3,odd,4937,171422,NA,NA,305406,306612,271273,2927,NA,306617,2935,152248,NA,306722,307155,306721,Flanker Task,136,66663,155,yes,1024
Incongruent,SSHSS,87.17948718,87.17948718,429.6346154,429.6346154,black,legacy,legacy,legacy,0,uniform,0,undefined,0,h,0,0,0,155,155,155,155,0,0,155,0,0,0,155,155,155,9/9/18 20:49,600,The main experiment item,yes,FlankerTask.osexp,E:/,no,mono,no,18,no,white,no,yes,768,legacy,75,79,E:/kg-subject-3.csv,legacy,Kafkaesque Koffka,3.2.5,0,s,NA,s,h,NA,s,360,NA,1999,19170,NA,360,2,legacy,1024,2,48000,-16,experiment,3,odd,4937,171422,NA,NA,307168,308378,271273,2927,NA,308383,2935,152248,NA,308493,308859,308493,Flanker Task,136,67023,156,yes,1024
Incongruent,HHSHH,87.2611465,87.2611465,429.9299363,429.9299363,black,legacy,legacy,legacy,0,uniform,1,undefined,1,s,0,0,0,156,156,156,156,0,0,156,0,0,0,156,156,156,9/9/18 20:49,600,The main experiment item,yes,FlankerTask.osexp,E:/,no,mono,no,18,no,white,no,yes,768,legacy,76,79,E:/kg-subject-3.csv,legacy,Kafkaesque Koffka,3.2.5,0,s,NA,s,h,NA,s,476,NA,1999,19170,NA,476,2,legacy,1024,2,48000,-16,experiment,3,odd,4937,171422,NA,NA,309384,310579,308872,2927,NA,310584,2935,152248,NA,310696,311178,310695,Flanker Task,137,67499,157,yes,1024
Incongruent,SSHSS,87.34177215,87.34177215,429.6012658,429.6012658,black,legacy,legacy,legacy,0,uniform,1,undefined,1,h,0,0,0,157,157,157,157,0,0,157,0,0,0,157,157,157,9/9/18 20:49,600,The main experiment item,yes,FlankerTask.osexp,E:/,no,mono,no,18,no,white,no,yes,768,legacy,77,79,E:/kg-subject-3.csv,legacy,Kafkaesque Koffka,3.2.5,0,h,NA,s,h,NA,h,378,NA,1999,19170,NA,378,2,legacy,1024,2,48000,-16,experiment,3,odd,4937,171422,NA,NA,311191,312380,308872,2927,NA,312386,2935,152248,NA,312499,312883,312498,Flanker Task,138,67877,158,yes,1024
Congruent,HHHHH,87.42138365,87.42138365,429.1572327,429.1572327,black,legacy,legacy,legacy,0,uniform,1,undefined,1,h,0,0,0,158,158,158,158,0,0,158,0,0,0,158,158,158,9/9/18 20:49,600,The main experiment item,yes,FlankerTask.osexp,E:/,no,mono,no,18,no,white,no,yes,768,legacy,78,79,E:/kg-subject-3.csv,legacy,Kafkaesque Koffka,3.2.5,0,h,NA,s,h,NA,h,359,NA,1999,19170,NA,359,2,legacy,1024,2,48000,-16,experiment,3,odd,4937,171422,NA,NA,312896,314108,308872,2927,NA,314114,2935,152248,NA,314222,314588,314222,Flanker Task,139,68236,159,yes,1024
Incongruent,SSHSS,87.5,87.5,429.15625,429.15625,black,legacy,legacy,legacy,0,uniform,1,undefined,1,h,0,0,0,159,159,159,159,0,0,159,0,0,0,159,159,159,9/9/18 20:49,600,The main experiment item,yes,FlankerTask.osexp,E:/,no,mono,no,18,no,white,no,yes,768,legacy,79,79,E:/kg-subject-3.csv,legacy,Kafkaesque Koffka,3.2.5,0,h,NA,s,h,NA,h,429,NA,1999,19170,NA,429,2,legacy,1024,2,48000,-16,experiment,3,odd,4937,171422,NA,NA,314601,315810,308872,2927,NA,315816,2935,152248,NA,315920,316356,315920,Flanker Task,140,68665,160,yes,1024
Congruent,SSSSS,87.57763975,87.57763975,430.0559006,430.0559006,black,legacy,legacy,legacy,0,uniform,1,undefined,1,s,0,0,0,160,160,160,160,0,0,160,0,0,0,160,160,160,9/9/18 20:49,300,The main experiment item,yes,FlankerTask.osexp,E:/,no,mono,no,18,no,white,no,yes,768,legacy,0,79,E:/kg-subject-3.csv,legacy,Kafkaesque Koffka,3.2.5,0,s,NA,s,h,h,s,574,NA,1999,19170,10420,574,2,legacy,1024,2,48000,-16,experiment,3,odd,4937,171422,327832,NA,316369,328037,308872,2927,NA,328042,2935,152248,317406,328155,328736,328154,Flanker Task,141,69239,161,yes,1024
Incongruent,HHSHH,87.65432099,87.65432099,429.7283951,429.7283951,black,legacy,legacy,legacy,0,uniform,1,undefined,1,s,0,0,0,161,161,161,161,0,0,161,0,0,0,161,161,161,9/9/18 20:49,300,The main experiment item,yes,FlankerTask.osexp,E:/,no,mono,no,18,no,white,no,yes,768,legacy,1,79,E:/kg-subject-3.csv,legacy,Kafkaesque Koffka,3.2.5,0,s,NA,s,h,h,s,377,NA,1999,19170,10420,377,2,legacy,1024,2,48000,-16,experiment,3,odd,4937,171422,327832,328751,329263,330489,308872,2927,NA,330495,2935,152248,317406,330608,330991,330607,Flanker Task,142,69616,162,yes,1024
Congruent,HHHHH,87.73006135,87.73006135,429.0674847,429.0674847,black,legacy,legacy,legacy,0,uniform,1,undefined,1,h,0,0,0,162,162,162,162,0,0,162,0,0,0,162,162,162,9/9/18 20:49,300,The main experiment item,yes,FlankerTask.osexp,E:/,no,mono,no,18,no,white,no,yes,768,legacy,2,79,E:/kg-subject-3.csv,legacy,Kafkaesque Koffka,3.2.5,0,h,NA,s,h,h,h,322,NA,1999,19170,10420,322,2,legacy,1024,2,48000,-16,experiment,3,odd,4937,171422,327832,331061,331566,332763,308872,2927,NA,332768,2935,152248,317406,332880,333209,332879,Flanker Task,143,69938,163,yes,1024
Congruent,SSSSS,87.80487805,87.80487805,427.9756098,427.9756098,black,legacy,legacy,legacy,0,uniform,1,undefined,1,s,0,0,0,163,163,163,163,0,0,163,0,0,0,163,163,163,9/9/18 20:49,300,The main experiment item,yes,FlankerTask.osexp,E:/,no,mono,no,18,no,white,no,yes,768,legacy,3,79,E:/kg-subject-3.csv,legacy,Kafkaesque Koffka,3.2.5,0,s,NA,s,h,h,s,250,NA,1999,19170,10420,250,2,legacy,1024,2,48000,-16,experiment,3,odd,4937,171422,327832,333225,333737,334948,308872,2927,NA,334953,2935,152248,317406,335058,335314,335058,Flanker Task,144,70188,164,yes,1024
Congruent,SSSSS,87.27272727,87.27272727,426.7454545,426.7454545,black,legacy,legacy,legacy,0,uniform,0,undefined,0,s,0,0,0,164,164,164,164,0,0,164,0,0,0,164,164,164,9/9/18 20:49,300,The main experiment item,yes,FlankerTask.osexp,E:/,no,mono,no,18,no,white,no,yes,768,legacy,4,79,E:/kg-subject-3.csv,legacy,Kafkaesque Koffka,3.2.5,0,h,NA,s,h,h,h,225,NA,1999,19170,10420,225,2,legacy,1024,2,48000,-16,experiment,3,odd,4937,171422,327832,333225,335327,336517,308872,2927,NA,336522,2935,152248,317406,336636,336868,336635,Flanker Task,144,70413,165,yes,1024
Congruent,SSSSS,86.74698795,86.74698795,424.8795181,424.8795181,black,legacy,legacy,legacy,0,uniform,0,undefined,0,s,0,0,0,165,165,165,165,0,0,165,0,0,0,165,165,165,9/9/18 20:49,300,The main experiment item,yes,FlankerTask.osexp,E:/,no,mono,no,18,no,white,no,yes,768,legacy,5,79,E:/kg-subject-3.csv,legacy,Kafkaesque Koffka,3.2.5,0,h,NA,s,h,h,h,117,NA,1999,19170,10420,117,2,legacy,1024,2,48000,-16,experiment,3,odd,4937,171422,327832,333225,337394,338601,336881,2927,NA,338606,2935,152248,317406,338711,338835,338710,Flanker Task,144,70530,166,yes,1024
Congruent,HHHHH,86.82634731,86.82634731,424.7245509,424.7245509,black,legacy,legacy,legacy,0,uniform,1,undefined,1,h,0,0,0,166,166,166,166,0,0,166,0,0,0,166,166,166,9/9/18 20:49,300,The main experiment item,yes,FlankerTask.osexp,E:/,no,mono,no,18,no,white,no,yes,768,legacy,6,79,E:/kg-subject-3.csv,legacy,Kafkaesque Koffka,3.2.5,0,h,NA,s,h,h,h,399,NA,1999,19170,10420,399,2,legacy,1024,2,48000,-16,experiment,3,odd,4937,171422,327832,333225,339352,340563,338847,2927,NA,340568,2935,152248,317406,340673,341078,340672,Flanker Task,145,70929,167,yes,1024
Congruent,HHHHH,86.9047619,86.9047619,423.702381,423.702381,black,legacy,legacy,legacy,0,uniform,1,undefined,1,h,0,0,0,167,167,167,167,0,0,167,0,0,0,167,167,167,9/9/18 20:49,300,The main experiment item,yes,FlankerTask.osexp,E:/,no,mono,no,18,no,white,no,yes,768,legacy,7,79,E:/kg-subject-3.csv,legacy,Kafkaesque Koffka,3.2.5,0,h,NA,s,h,h,h,253,NA,1999,19170,10420,253,2,legacy,1024,2,48000,-16,experiment,3,odd,4937,171422,327832,341092,341596,342806,338847,2927,NA,342811,2935,152248,317406,342924,343183,342923,Flanker Task,146,71182,168,yes,1024
Congruent,SSSSS,86.98224852,86.98224852,422.7751479,422.7751479,black,legacy,legacy,legacy,0,uniform,1,undefined,1,s,0,0,0,168,168,168,168,0,0,168,0,0,0,168,168,168,9/9/18 20:49,300,The main experiment item,yes,FlankerTask.osexp,E:/,no,mono,no,18,no,white,no,yes,768,legacy,8,79,E:/kg-subject-3.csv,legacy,Kafkaesque Koffka,3.2.5,0,s,NA,s,h,h,s,267,NA,1999,19170,10420,267,2,legacy,1024,2,48000,-16,experiment,3,odd,4937,171422,327832,341092,343196,344389,338847,2927,NA,344394,2935,152248,317406,344500,344775,344500,Flanker Task,147,71449,169,yes,1024
Incongruent,SSHSS,87.05882353,87.05882353,422.0647059,422.0647059,black,legacy,legacy,legacy,0,uniform,1,undefined,1,h,0,0,0,169,169,169,169,0,0,169,0,0,0,169,169,169,9/9/18 20:49,300,The main experiment item,yes,FlankerTask.osexp,E:/,no,mono,no,18,no,white,no,yes,768,legacy,9,79,E:/kg-subject-3.csv,legacy,Kafkaesque Koffka,3.2.5,0,h,NA,s,h,h,h,302,NA,1999,19170,10420,302,2,legacy,1024,2,48000,-16,experiment,3,odd,4937,171422,327832,341092,344788,346010,338847,2927,NA,346016,2935,152248,317406,346120,346428,346119,Flanker Task,148,71751,170,yes,1024
Congruent,HHHHH,86.5497076,86.5497076,421.2982456,421.2982456,black,legacy,legacy,legacy,0,uniform,0,undefined,0,h,0,0,0,170,170,170,170,0,0,170,0,0,0,170,170,170,9/9/18 20:49,300,The main experiment item,yes,FlankerTask.osexp,E:/,no,mono,no,18,no,white,no,yes,768,legacy,10,79,E:/kg-subject-3.csv,legacy,Kafkaesque Koffka,3.2.5,0,s,NA,s,h,h,s,291,NA,1999,19170,10420,291,2,legacy,1024,2,48000,-16,experiment,3,odd,4937,171422,327832,346441,346951,348143,338847,2927,NA,348148,2935,152248,317406,348261,348558,348261,Flanker Task,148,72042,171,yes,1024
Incongruent,SSHSS,86.04651163,86.04651163,420.5406977,420.5406977,black,legacy,legacy,legacy,0,uniform,0,undefined,0,h,0,0,0,171,171,171,171,0,0,171,0,0,0,171,171,171,9/9/18 20:49,300,The main experiment item,yes,FlankerTask.osexp,E:/,no,mono,no,18,no,white,no,yes,768,legacy,11,79,E:/kg-subject-3.csv,legacy,Kafkaesque Koffka,3.2.5,0,s,NA,s,h,h,s,291,NA,1999,19170,10420,291,2,legacy,1024,2,48000,-16,experiment,3,odd,4937,171422,327832,346441,349080,350293,348573,2927,NA,350299,2935,152248,317406,350403,350701,350403,Flanker Task,148,72333,172,yes,1024
Incongruent,HHSHH,86.12716763,86.12716763,420.5491329,420.5491329,black,legacy,legacy,legacy,0,uniform,1,undefined,1,s,0,0,0,172,172,172,172,0,0,172,0,0,0,172,172,172,9/9/18 20:49,300,The main experiment item,yes,FlankerTask.osexp,E:/,no,mono,no,18,no,white,no,yes,768,legacy,12,79,E:/kg-subject-3.csv,legacy,Kafkaesque Koffka,3.2.5,0,s,NA,s,h,h,s,422,NA,1999,19170,10420,422,2,legacy,1024,2,48000,-16,experiment,3,odd,4937,171422,327832,346441,351228,352422,350716,2927,NA,352427,2935,152248,317406,352540,352968,352540,Flanker Task,149,72755,173,yes,1024
Congruent,HHHHH,86.20689655,86.20689655,420.0862069,420.0862069,black,legacy,legacy,legacy,0,uniform,1,undefined,1,h,0,0,0,173,173,173,173,0,0,173,0,0,0,173,173,173,9/9/18 20:49,300,The main experiment item,yes,FlankerTask.osexp,E:/,no,mono,no,18,no,white,no,yes,768,legacy,13,79,E:/kg-subject-3.csv,legacy,Kafkaesque Koffka,3.2.5,0,h,NA,s,h,h,h,340,NA,1999,19170,10420,340,2,legacy,1024,2,48000,-16,experiment,3,odd,4937,171422,327832,352981,353485,354698,350716,2927,NA,354704,2935,152248,317406,354814,355161,354814,Flanker Task,150,73095,174,yes,1024
Incongruent,HHSHH,86.28571429,86.28571429,419.2171429,419.2171429,black,legacy,legacy,legacy,0,uniform,1,undefined,1,s,0,0,0,174,174,174,174,0,0,174,0,0,0,174,174,174,9/9/18 20:49,300,The main experiment item,yes,FlankerTask.osexp,E:/,no,mono,no,18,no,white,no,yes,768,legacy,14,79,E:/kg-subject-3.csv,legacy,Kafkaesque Koffka,3.2.5,0,s,NA,s,h,h,s,268,NA,1999,19170,10420,268,2,legacy,1024,2,48000,-16,experiment,3,odd,4937,171422,327832,355174,355684,356894,350716,2927,NA,356900,2935,152248,317406,357004,357278,357004,Flanker Task,151,73363,175,yes,1024
Congruent,HHHHH,86.36363636,86.36363636,418.2386364,418.2386364,black,legacy,legacy,legacy,0,uniform,1,undefined,1,h,0,0,0,175,175,175,175,0,0,175,0,0,0,175,175,175,9/9/18 20:49,300,The main experiment item,yes,FlankerTask.osexp,E:/,no,mono,no,18,no,white,no,yes,768,legacy,15,79,E:/kg-subject-3.csv,legacy,Kafkaesque Koffka,3.2.5,0,h,NA,s,h,h,h,247,NA,1999,19170,10420,247,2,legacy,1024,2,48000,-16,experiment,3,odd,4937,171422,327832,355174,357291,358485,350716,2927,NA,358491,2935,152248,317406,358603,358857,358603,Flanker Task,152,73610,176,yes,1024
Incongruent,HHSHH,86.44067797,86.44067797,417.3276836,417.3276836,black,legacy,legacy,legacy,0,uniform,1,undefined,1,s,0,0,0,176,176,176,176,0,0,176,0,0,0,176,176,176,9/9/18 20:49,300,The main experiment item,yes,FlankerTask.osexp,E:/,no,mono,no,18,no,white,no,yes,768,legacy,16,79,E:/kg-subject-3.csv,legacy,Kafkaesque Koffka,3.2.5,0,s,NA,s,h,h,s,257,NA,1999,19170,10420,257,2,legacy,1024,2,48000,-16,experiment,3,odd,4937,171422,327832,355174,358873,360086,350716,2927,NA,360092,2935,152248,317406,360197,360462,360196,Flanker Task,153,73867,177,yes,1024
Congruent,HHHHH,86.51685393,86.51685393,416.5,416.5,black,legacy,legacy,legacy,0,uniform,1,undefined,1,h,0,0,0,177,177,177,177,0,0,177,0,0,0,177,177,177,9/9/18 20:49,300,The main experiment item,yes,FlankerTask.osexp,E:/,no,mono,no,18,no,white,no,yes,768,legacy,17,79,E:/kg-subject-3.csv,legacy,Kafkaesque Koffka,3.2.5,0,h,NA,s,h,h,h,270,NA,1999,19170,10420,270,2,legacy,1024,2,48000,-16,experiment,3,odd,4937,171422,327832,355174,360479,361684,350716,2927,NA,361689,2935,152248,317406,361801,362078,361801,Flanker Task,154,74137,178,yes,1024
Incongruent,HHSHH,86.59217877,86.59217877,415.4692737,415.4692737,black,legacy,legacy,legacy,0,uniform,1,undefined,1,s,0,0,0,178,178,178,178,0,0,178,0,0,0,178,178,178,9/9/18 20:49,300,The main experiment item,yes,FlankerTask.osexp,E:/,no,mono,no,18,no,white,no,yes,768,legacy,18,79,E:/kg-subject-3.csv,legacy,Kafkaesque Koffka,3.2.5,0,s,NA,s,h,h,s,232,NA,1999,19170,10420,232,2,legacy,1024,2,48000,-16,experiment,3,odd,4937,171422,327832,355174,362153,363349,350716,2927,NA,363354,2935,152248,317406,363467,363706,363466,Flanker Task,155,74369,179,yes,1024
Incongruent,HHSHH,86.11111111,86.11111111,414.4611111,414.4611111,black,legacy,legacy,legacy,0,uniform,0,undefined,0,s,0,0,0,179,179,179,179,0,0,179,0,0,0,179,179,179,9/9/18 20:49,300,The main experiment item,yes,FlankerTask.osexp,E:/,no,mono,no,18,no,white,no,yes,768,legacy,19,79,E:/kg-subject-3.csv,legacy,Kafkaesque Koffka,3.2.5,0,h,NA,s,h,h,h,234,NA,1999,19170,10420,234,2,legacy,1024,2,48000,-16,experiment,3,odd,4937,171422,327832,355174,363719,364934,350716,2927,NA,364940,2935,152248,317406,365044,365285,365044,Flanker Task,155,74603,180,yes,1024
Incongruent,SSHSS,86.1878453,86.1878453,413.8508287,413.8508287,black,legacy,legacy,legacy,0,uniform,1,undefined,1,h,0,0,0,180,180,180,180,0,0,180,0,0,0,180,180,180,9/9/18 20:49,300,The main experiment item,yes,FlankerTask.osexp,E:/,no,mono,no,18,no,white,no,yes,768,legacy,20,79,E:/kg-subject-3.csv,legacy,Kafkaesque Koffka,3.2.5,0,h,NA,s,h,h,h,304,NA,1999,19170,10420,304,2,legacy,1024,2,48000,-16,experiment,3,odd,4937,171422,327832,355174,365810,367017,365298,2927,NA,367023,2935,152248,317406,367130,367441,367130,Flanker Task,156,74907,181,yes,1024
Congruent,SSSSS,86.26373626,86.26373626,412.9230769,412.9230769,black,legacy,legacy,legacy,0,uniform,1,undefined,1,s,0,0,0,181,181,181,181,0,0,181,0,0,0,181,181,181,9/9/18 20:49,300,The main experiment item,yes,FlankerTask.osexp,E:/,no,mono,no,18,no,white,no,yes,768,legacy,21,79,E:/kg-subject-3.csv,legacy,Kafkaesque Koffka,3.2.5,0,s,NA,s,h,h,s,245,NA,1999,19170,10420,245,2,legacy,1024,2,48000,-16,experiment,3,odd,4937,171422,327832,367454,367966,369167,365298,2927,NA,369173,2935,152248,317406,369280,369531,369280,Flanker Task,157,75152,182,yes,1024
Congruent,SSSSS,86.33879781,86.33879781,412.557377,412.557377,black,legacy,legacy,legacy,0,uniform,1,undefined,1,s,0,0,0,182,182,182,182,0,0,182,0,0,0,182,182,182,9/9/18 20:49,300,The main experiment item,yes,FlankerTask.osexp,E:/,no,mono,no,18,no,white,no,yes,768,legacy,22,79,E:/kg-subject-3.csv,legacy,Kafkaesque Koffka,3.2.5,0,s,NA,s,h,h,s,346,NA,1999,19170,10420,346,2,legacy,1024,2,48000,-16,experiment,3,odd,4937,171422,327832,367454,369544,370744,365298,2927,NA,370749,2935,152248,317406,370860,371213,370860,Flanker Task,158,75498,183,yes,1024
Congruent,HHHHH,86.41304348,86.41304348,411.9293478,411.9293478,black,legacy,legacy,legacy,0,uniform,1,undefined,1,h,0,0,0,183,183,183,183,0,0,183,0,0,0,183,183,183,9/9/18 20:49,300,The main experiment item,yes,FlankerTask.osexp,E:/,no,mono,no,18,no,white,no,yes,768,legacy,23,79,E:/kg-subject-3.csv,legacy,Kafkaesque Koffka,3.2.5,0,h,NA,s,h,h,h,297,NA,1999,19170,10420,297,2,legacy,1024,2,48000,-16,experiment,3,odd,4937,171422,327832,371226,371730,372941,365298,2927,NA,372947,2935,152248,317406,373051,373355,373050,Flanker Task,159,75795,184,yes,1024
Congruent,SSSSS,86.48648649,86.48648649,411.2,411.2,black,legacy,legacy,legacy,0,uniform,1,undefined,1,s,0,0,0,184,184,184,184,0,0,184,0,0,0,184,184,184,9/9/18 20:49,300,The main experiment item,yes,FlankerTask.osexp,E:/,no,mono,no,18,no,white,no,yes,768,legacy,24,79,E:/kg-subject-3.csv,legacy,Kafkaesque Koffka,3.2.5,0,s,NA,s,h,h,s,277,NA,1999,19170,10420,277,2,legacy,1024,2,48000,-16,experiment,3,odd,4937,171422,327832,371226,373368,374555,365298,2927,NA,374560,2935,152248,317406,374672,374956,374672,Flanker Task,160,76072,185,yes,1024
Incongruent,HHSHH,86.55913978,86.55913978,411.0752688,411.0752688,black,legacy,legacy,legacy,0,uniform,1,undefined,1,s,0,0,0,185,185,185,185,0,0,185,0,0,0,185,185,185,9/9/18 20:49,300,The main experiment item,yes,FlankerTask.osexp,E:/,no,mono,no,18,no,white,no,yes,768,legacy,25,79,E:/kg-subject-3.csv,legacy,Kafkaesque Koffka,3.2.5,0,s,NA,s,h,h,s,388,NA,1999,19170,10420,388,2,legacy,1024,2,48000,-16,experiment,3,odd,4937,171422,327832,371226,374970,376189,365298,2927,NA,376194,2935,152248,317406,376306,376701,376306,Flanker Task,161,76460,186,yes,1024
