"acc","accuracy","average_response_time","avg_rt","background","canvas_backend","clock_backend","color_backend","compensation","condition","coordinates","correct","correct_instructions1","correct_keyboard_response","correct_response","count_Block1","count_Block2","count_Block3","count_ISI","count_Stimulus","count_errorfeedback","count_experiment","count_faster","count_finish","count_fixation","count_instructions1","count_instructions2","count_instructions3","count_keyboard_response","count_logger","count_sequence","datetime","deadline","description","disable_garbage_collection","experiment_file","experiment_path","font_bold","font_family","font_italic","font_size","font_underline","foreground","form_clicks","fullscreen","height","keyboard_backend","live_row","live_row_Block1","logfile","mouse_backend","opensesame_codename","opensesame_version","repeat_cycle","response","response_finish","response_instructions1","response_instructions2","response_instructions3","response_keyboard_response","response_time","response_time_finish","response_time_instructions1","response_time_instructions2","response_time_instructions3","response_time_keyboard_response","round_decimals","sampler_backend","sound_buf_size","sound_channels","sound_freq","sound_sample_size","start","stimulus","subject_nr","subject_parity","time_Block1","time_Block2","time_Block3","time_ISI","time_Stimulus","time_errorfeedback","time_experiment","time_faster","time_finish","time_fixation","time_instructions1","time_instructions2","time_instructions3","time_keyboard_response","time_logger","time_sequence","title","total_correct","total_response_time","total_responses","uniform_coordinates","width"
"100","100","1404","1404","black","legacy","legacy","legacy","0","incongruent","uniform","1","undefined","1","h","0","0","0","0","0","0","0","0","0","0","0","0","0","0","0","0","Fri Sep  7 15:08:46 2018","1500","The main experiment item","yes","FlankerTaskAHC.osexp","/Users/abigailchristie/Desktop/Faulkenberry","no","mono","no","18","no","white","no","yes","768","legacy","0","0","/Users/abigailchristie/Desktop/Faulkenberry/AHC02.csv","legacy","Kafkaesque Koffka","3.2.5","0","h","NA","s","NA","NA","h","1404","NA","56277","NA","NA","1404","2","legacy","1024","2","48000","-16","experiment","SSHSS","2","even","58705","NA","NA","NA","58904","NA","2406","NA","NA","58795","2417","NA","NA","58904","60310","58787","Flanker Task-AHC","1","1404","1","yes","1024"
"100","100","1055","1055","black","legacy","legacy","legacy","0","incongruent","uniform","1","undefined","1","h","0","0","0","1","1","1","0","1","0","1","0","0","0","1","1","1","Fri Sep  7 15:08:46 2018","1500","The main experiment item","yes","FlankerTaskAHC.osexp","/Users/abigailchristie/Desktop/Faulkenberry","no","mono","no","18","no","white","no","yes","768","legacy","1","1","/Users/abigailchristie/Desktop/Faulkenberry/AHC02.csv","legacy","Kafkaesque Koffka","3.2.5","0","h","NA","s","NA","NA","h","706","NA","56277","NA","NA","706","2","legacy","1024","2","48000","-16","experiment","SSHSS","2","even","58705","NA","NA","60323","61530","NA","2406","NA","NA","61421","2417","NA","NA","61531","62239","61414","Flanker Task-AHC","2","2110","2","yes","1024"
"100","100","1005","1005","black","legacy","legacy","legacy","0","congruent","uniform","1","undefined","1","s","0","0","0","2","2","2","0","2","0","2","0","0","0","2","2","2","Fri Sep  7 15:08:46 2018","1500","The main experiment item","yes","FlankerTaskAHC.osexp","/Users/abigailchristie/Desktop/Faulkenberry","no","mono","no","18","no","white","no","yes","768","legacy","2","2","/Users/abigailchristie/Desktop/Faulkenberry/AHC02.csv","legacy","Kafkaesque Koffka","3.2.5","0","s","NA","s","NA","NA","s","905","NA","56277","NA","NA","905","2","legacy","1024","2","48000","-16","experiment","SSSSS","2","even","58705","NA","NA","62253","63451","NA","2406","NA","NA","63340","2417","NA","NA","63451","64358","63333","Flanker Task-AHC","3","3015","3","yes","1024"
"100","100","909","909","black","legacy","legacy","legacy","0","congruent","uniform","1","undefined","1","h","0","0","0","3","3","3","0","3","0","3","0","0","0","3","3","3","Fri Sep  7 15:08:46 2018","1500","The main experiment item","yes","FlankerTaskAHC.osexp","/Users/abigailchristie/Desktop/Faulkenberry","no","mono","no","18","no","white","no","yes","768","legacy","3","3","/Users/abigailchristie/Desktop/Faulkenberry/AHC02.csv","legacy","Kafkaesque Koffka","3.2.5","0","h","NA","s","NA","NA","h","621","NA","56277","NA","NA","621","2","legacy","1024","2","48000","-16","experiment","HHHHH","2","even","58705","NA","NA","64370","65568","NA","2406","NA","NA","65459","2417","NA","NA","65568","66191","65451","Flanker Task-AHC","4","3636","4","yes","1024"
"100","100","887.8","887.8","black","legacy","legacy","legacy","0","incongruent","uniform","1","undefined","1","s","0","0","0","4","4","4","0","4","0","4","0","0","0","4","4","4","Fri Sep  7 15:08:46 2018","1500","The main experiment item","yes","FlankerTaskAHC.osexp","/Users/abigailchristie/Desktop/Faulkenberry","no","mono","no","18","no","white","no","yes","768","legacy","4","4","/Users/abigailchristie/Desktop/Faulkenberry/AHC02.csv","legacy","Kafkaesque Koffka","3.2.5","0","s","NA","s","NA","NA","s","803","NA","56277","NA","NA","803","2","legacy","1024","2","48000","-16","experiment","HHSHH","2","even","58705","NA","NA","66201","67401","NA","2406","NA","NA","67292","2417","NA","NA","67401","68207","67285","Flanker Task-AHC","5","4439","5","yes","1024"
"100","100","869.666666667","869.666666667","black","legacy","legacy","legacy","0","incongruent","uniform","1","undefined","1","s","0","0","0","5","5","5","0","5","0","5","0","0","0","5","5","5","Fri Sep  7 15:08:46 2018","1500","The main experiment item","yes","FlankerTaskAHC.osexp","/Users/abigailchristie/Desktop/Faulkenberry","no","mono","no","18","no","white","no","yes","768","legacy","5","5","/Users/abigailchristie/Desktop/Faulkenberry/AHC02.csv","legacy","Kafkaesque Koffka","3.2.5","0","s","NA","s","NA","NA","s","779","NA","56277","NA","NA","779","2","legacy","1024","2","48000","-16","experiment","HHSHH","2","even","58705","NA","NA","68221","69417","NA","2406","NA","NA","69308","2417","NA","NA","69417","70198","69301","Flanker Task-AHC","6","5218","6","yes","1024"
"100","100","843.571428571","843.571428571","black","legacy","legacy","legacy","0","incongruent","uniform","1","undefined","1","h","0","0","0","6","6","6","0","6","0","6","0","0","0","6","6","6","Fri Sep  7 15:08:46 2018","1500","The main experiment item","yes","FlankerTaskAHC.osexp","/Users/abigailchristie/Desktop/Faulkenberry","no","mono","no","18","no","white","no","yes","768","legacy","6","6","/Users/abigailchristie/Desktop/Faulkenberry/AHC02.csv","legacy","Kafkaesque Koffka","3.2.5","0","h","NA","s","NA","NA","h","687","NA","56277","NA","NA","687","2","legacy","1024","2","48000","-16","experiment","SSHSS","2","even","58705","NA","NA","70208","71405","NA","2406","NA","NA","71296","2417","NA","NA","71405","72094","71289","Flanker Task-AHC","7","5905","7","yes","1024"
"100","100","821.875","821.875","black","legacy","legacy","legacy","0","congruent","uniform","1","undefined","1","s","0","0","0","7","7","7","0","7","0","7","0","0","0","7","7","7","Fri Sep  7 15:08:46 2018","1500","The main experiment item","yes","FlankerTaskAHC.osexp","/Users/abigailchristie/Desktop/Faulkenberry","no","mono","no","18","no","white","no","yes","768","legacy","7","7","/Users/abigailchristie/Desktop/Faulkenberry/AHC02.csv","legacy","Kafkaesque Koffka","3.2.5","0","s","NA","s","NA","NA","s","670","NA","56277","NA","NA","670","2","legacy","1024","2","48000","-16","experiment","SSSSS","2","even","58705","NA","NA","72106","73303","NA","2406","NA","NA","73194","2417","NA","NA","73303","73975","73187","Flanker Task-AHC","8","6575","8","yes","1024"
"100","100","804.222222222","804.222222222","black","legacy","legacy","legacy","0","incongruent","uniform","1","undefined","1","h","0","0","0","8","8","8","0","8","0","8","0","0","0","8","8","8","Fri Sep  7 15:08:46 2018","1500","The main experiment item","yes","FlankerTaskAHC.osexp","/Users/abigailchristie/Desktop/Faulkenberry","no","mono","no","18","no","white","no","yes","768","legacy","8","8","/Users/abigailchristie/Desktop/Faulkenberry/AHC02.csv","legacy","Kafkaesque Koffka","3.2.5","0","h","NA","s","NA","NA","h","663","NA","56277","NA","NA","663","2","legacy","1024","2","48000","-16","experiment","SSHSS","2","even","58705","NA","NA","73987","75182","NA","2406","NA","NA","75073","2417","NA","NA","75182","75847","75066","Flanker Task-AHC","9","7238","9","yes","1024"
"100","100","788.3","788.3","black","legacy","legacy","legacy","0","incongruent","uniform","1","undefined","1","h","0","0","0","9","9","9","0","9","0","9","0","0","0","9","9","9","Fri Sep  7 15:08:46 2018","1500","The main experiment item","yes","FlankerTaskAHC.osexp","/Users/abigailchristie/Desktop/Faulkenberry","no","mono","no","18","no","white","no","yes","768","legacy","9","9","/Users/abigailchristie/Desktop/Faulkenberry/AHC02.csv","legacy","Kafkaesque Koffka","3.2.5","0","h","NA","s","NA","NA","h","645","NA","56277","NA","NA","645","2","legacy","1024","2","48000","-16","experiment","SSHSS","2","even","58705","NA","NA","75859","77056","NA","2406","NA","NA","76947","2417","NA","NA","77056","77702","76939","Flanker Task-AHC","10","7883","10","yes","1024"
"100","100","769.272727273","769.272727273","black","legacy","legacy","legacy","0","incongruent","uniform","1","undefined","1","h","0","0","0","10","10","10","0","10","0","10","0","0","0","10","10","10","Fri Sep  7 15:08:46 2018","1500","The main experiment item","yes","FlankerTaskAHC.osexp","/Users/abigailchristie/Desktop/Faulkenberry","no","mono","no","18","no","white","no","yes","768","legacy","10","10","/Users/abigailchristie/Desktop/Faulkenberry/AHC02.csv","legacy","Kafkaesque Koffka","3.2.5","0","h","NA","s","NA","NA","h","579","NA","56277","NA","NA","579","2","legacy","1024","2","48000","-16","experiment","SSHSS","2","even","58705","NA","NA","77711","78906","NA","2406","NA","NA","78797","2417","NA","NA","78906","79487","78790","Flanker Task-AHC","11","8462","11","yes","1024"
"100","100","774.416666667","774.416666667","black","legacy","legacy","legacy","0","incongruent","uniform","1","undefined","1","s","0","0","0","11","11","11","0","11","0","11","0","0","0","11","11","11","Fri Sep  7 15:08:46 2018","1500","The main experiment item","yes","FlankerTaskAHC.osexp","/Users/abigailchristie/Desktop/Faulkenberry","no","mono","no","18","no","white","no","yes","768","legacy","11","11","/Users/abigailchristie/Desktop/Faulkenberry/AHC02.csv","legacy","Kafkaesque Koffka","3.2.5","0","s","NA","s","NA","NA","s","831","NA","56277","NA","NA","831","2","legacy","1024","2","48000","-16","experiment","HHSHH","2","even","58705","NA","NA","79498","80694","NA","2406","NA","NA","80585","2417","NA","NA","80694","81527","80577","Flanker Task-AHC","12","9293","12","yes","1024"
"100","100","770.153846154","770.153846154","black","legacy","legacy","legacy","0","incongruent","uniform","1","undefined","1","s","0","0","0","12","12","12","0","12","0","12","0","0","0","12","12","12","Fri Sep  7 15:08:46 2018","1500","The main experiment item","yes","FlankerTaskAHC.osexp","/Users/abigailchristie/Desktop/Faulkenberry","no","mono","no","18","no","white","no","yes","768","legacy","12","12","/Users/abigailchristie/Desktop/Faulkenberry/AHC02.csv","legacy","Kafkaesque Koffka","3.2.5","0","s","NA","s","NA","NA","s","719","NA","56277","NA","NA","719","2","legacy","1024","2","48000","-16","experiment","HHSHH","2","even","58705","NA","NA","81538","82734","NA","2406","NA","NA","82625","2417","NA","NA","82734","83455","82618","Flanker Task-AHC","13","10012","13","yes","1024"
"100","100","766.857142857","766.857142857","black","legacy","legacy","legacy","0","congruent","uniform","1","undefined","1","s","0","0","0","13","13","13","0","13","0","13","0","0","0","13","13","13","Fri Sep  7 15:08:46 2018","1500","The main experiment item","yes","FlankerTaskAHC.osexp","/Users/abigailchristie/Desktop/Faulkenberry","no","mono","no","18","no","white","no","yes","768","legacy","13","13","/Users/abigailchristie/Desktop/Faulkenberry/AHC02.csv","legacy","Kafkaesque Koffka","3.2.5","0","s","NA","s","NA","NA","s","724","NA","56277","NA","NA","724","2","legacy","1024","2","48000","-16","experiment","SSSSS","2","even","58705","NA","NA","83467","84664","NA","2406","NA","NA","84556","2417","NA","NA","84664","85389","84548","Flanker Task-AHC","14","10736","14","yes","1024"
"100","100","754.266666667","754.266666667","black","legacy","legacy","legacy","0","congruent","uniform","1","undefined","1","s","0","0","0","14","14","14","0","14","0","14","0","0","0","14","14","14","Fri Sep  7 15:08:46 2018","1500","The main experiment item","yes","FlankerTaskAHC.osexp","/Users/abigailchristie/Desktop/Faulkenberry","no","mono","no","18","no","white","no","yes","768","legacy","14","14","/Users/abigailchristie/Desktop/Faulkenberry/AHC02.csv","legacy","Kafkaesque Koffka","3.2.5","0","s","NA","s","NA","NA","s","578","NA","56277","NA","NA","578","2","legacy","1024","2","48000","-16","experiment","SSSSS","2","even","58705","NA","NA","85402","86602","NA","2406","NA","NA","86493","2417","NA","NA","86602","87182","86486","Flanker Task-AHC","15","11314","15","yes","1024"
"100","100","740.9375","740.9375","black","legacy","legacy","legacy","0","congruent","uniform","1","undefined","1","h","0","0","0","15","15","15","0","15","0","15","0","0","0","15","15","15","Fri Sep  7 15:08:46 2018","1500","The main experiment item","yes","FlankerTaskAHC.osexp","/Users/abigailchristie/Desktop/Faulkenberry","no","mono","no","18","no","white","no","yes","768","legacy","15","15","/Users/abigailchristie/Desktop/Faulkenberry/AHC02.csv","legacy","Kafkaesque Koffka","3.2.5","0","h","NA","s","NA","NA","h","541","NA","56277","NA","NA","541","2","legacy","1024","2","48000","-16","experiment","HHHHH","2","even","58705","NA","NA","87195","88391","NA","2406","NA","NA","88282","2417","NA","NA","88391","88934","88275","Flanker Task-AHC","16","11855","16","yes","1024"
"100","100","738.764705882","738.764705882","black","legacy","legacy","legacy","0","incongruent","uniform","1","undefined","1","s","0","0","0","16","16","16","0","16","0","16","0","0","0","16","16","16","Fri Sep  7 15:08:46 2018","1500","The main experiment item","yes","FlankerTaskAHC.osexp","/Users/abigailchristie/Desktop/Faulkenberry","no","mono","no","18","no","white","no","yes","768","legacy","16","16","/Users/abigailchristie/Desktop/Faulkenberry/AHC02.csv","legacy","Kafkaesque Koffka","3.2.5","0","s","NA","s","NA","NA","s","704","NA","56277","NA","NA","704","2","legacy","1024","2","48000","-16","experiment","HHSHH","2","even","58705","NA","NA","88945","90140","NA","2406","NA","NA","90031","2417","NA","NA","90140","90846","90024","Flanker Task-AHC","17","12559","17","yes","1024"
"100","100","730.166666667","730.166666667","black","legacy","legacy","legacy","0","congruent","uniform","1","undefined","1","s","0","0","0","17","17","17","0","17","0","17","0","0","0","17","17","17","Fri Sep  7 15:08:46 2018","1500","The main experiment item","yes","FlankerTaskAHC.osexp","/Users/abigailchristie/Desktop/Faulkenberry","no","mono","no","18","no","white","no","yes","768","legacy","17","17","/Users/abigailchristie/Desktop/Faulkenberry/AHC02.csv","legacy","Kafkaesque Koffka","3.2.5","0","s","NA","s","NA","NA","s","584","NA","56277","NA","NA","584","2","legacy","1024","2","48000","-16","experiment","SSSSS","2","even","58705","NA","NA","90856","92052","NA","2406","NA","NA","91944","2417","NA","NA","92052","92638","91937","Flanker Task-AHC","18","13143","18","yes","1024"
"100","100","716.263157895","716.263157895","black","legacy","legacy","legacy","0","congruent","uniform","1","undefined","1","s","0","0","0","18","18","18","0","18","0","18","0","0","0","18","18","18","Fri Sep  7 15:08:46 2018","1500","The main experiment item","yes","FlankerTaskAHC.osexp","/Users/abigailchristie/Desktop/Faulkenberry","no","mono","no","18","no","white","no","yes","768","legacy","18","18","/Users/abigailchristie/Desktop/Faulkenberry/AHC02.csv","legacy","Kafkaesque Koffka","3.2.5","0","s","NA","s","NA","NA","s","466","NA","56277","NA","NA","466","2","legacy","1024","2","48000","-16","experiment","SSSSS","2","even","58705","NA","NA","92651","93849","NA","2406","NA","NA","93739","2417","NA","NA","93849","94317","93731","Flanker Task-AHC","19","13609","19","yes","1024"
"100","100","703.5","703.5","black","legacy","legacy","legacy","0","congruent","uniform","1","undefined","1","s","0","0","0","19","19","19","0","19","0","19","0","0","0","19","19","19","Fri Sep  7 15:08:46 2018","1500","The main experiment item","yes","FlankerTaskAHC.osexp","/Users/abigailchristie/Desktop/Faulkenberry","no","mono","no","18","no","white","no","yes","768","legacy","19","19","/Users/abigailchristie/Desktop/Faulkenberry/AHC02.csv","legacy","Kafkaesque Koffka","3.2.5","0","s","NA","s","NA","NA","s","461","NA","56277","NA","NA","461","2","legacy","1024","2","48000","-16","experiment","SSSSS","2","even","58705","NA","NA","94330","95527","NA","2406","NA","NA","95417","2417","NA","NA","95527","95990","95410","Flanker Task-AHC","20","14070","20","yes","1024"
"100","100","694.428571429","694.428571429","black","legacy","legacy","legacy","0","congruent","uniform","1","undefined","1","h","0","0","0","20","20","20","0","20","0","20","0","0","0","20","20","20","Fri Sep  7 15:08:46 2018","1500","The main experiment item","yes","FlankerTaskAHC.osexp","/Users/abigailchristie/Desktop/Faulkenberry","no","mono","no","18","no","white","no","yes","768","legacy","20","20","/Users/abigailchristie/Desktop/Faulkenberry/AHC02.csv","legacy","Kafkaesque Koffka","3.2.5","0","h","NA","s","NA","NA","h","513","NA","56277","NA","NA","513","2","legacy","1024","2","48000","-16","experiment","HHHHH","2","even","58705","NA","NA","96003","97203","NA","2406","NA","NA","97093","2417","NA","NA","97203","97718","97086","Flanker Task-AHC","21","14583","21","yes","1024"
"100","100","683.954545455","683.954545455","black","legacy","legacy","legacy","0","incongruent","uniform","1","undefined","1","h","0","0","0","21","21","21","0","21","0","21","0","0","0","21","21","21","Fri Sep  7 15:08:46 2018","1500","The main experiment item","yes","FlankerTaskAHC.osexp","/Users/abigailchristie/Desktop/Faulkenberry","no","mono","no","18","no","white","no","yes","768","legacy","21","21","/Users/abigailchristie/Desktop/Faulkenberry/AHC02.csv","legacy","Kafkaesque Koffka","3.2.5","0","h","NA","s","NA","NA","h","464","NA","56277","NA","NA","464","2","legacy","1024","2","48000","-16","experiment","SSHSS","2","even","58705","NA","NA","97729","98923","NA","2406","NA","NA","98815","2417","NA","NA","98923","99389","98807","Flanker Task-AHC","22","15047","22","yes","1024"
"100","100","680.782608696","680.782608696","black","legacy","legacy","legacy","0","incongruent","uniform","1","undefined","1","s","0","0","0","22","22","22","0","22","0","22","0","0","0","22","22","22","Fri Sep  7 15:08:46 2018","1500","The main experiment item","yes","FlankerTaskAHC.osexp","/Users/abigailchristie/Desktop/Faulkenberry","no","mono","no","18","no","white","no","yes","768","legacy","22","22","/Users/abigailchristie/Desktop/Faulkenberry/AHC02.csv","legacy","Kafkaesque Koffka","3.2.5","0","s","NA","s","NA","NA","s","611","NA","56277","NA","NA","611","2","legacy","1024","2","48000","-16","experiment","HHSHH","2","even","58705","NA","NA","99401","100600","NA","2406","NA","NA","100491","2417","NA","NA","100600","101213","100483","Flanker Task-AHC","23","15658","23","yes","1024"
"100","100","682.75","682.75","black","legacy","legacy","legacy","0","incongruent","uniform","1","undefined","1","s","0","0","0","23","23","23","0","23","0","23","0","0","0","23","23","23","Fri Sep  7 15:08:46 2018","1500","The main experiment item","yes","FlankerTaskAHC.osexp","/Users/abigailchristie/Desktop/Faulkenberry","no","mono","no","18","no","white","no","yes","768","legacy","23","23","/Users/abigailchristie/Desktop/Faulkenberry/AHC02.csv","legacy","Kafkaesque Koffka","3.2.5","0","s","NA","s","NA","NA","s","728","NA","56277","NA","NA","728","2","legacy","1024","2","48000","-16","experiment","HHSHH","2","even","58705","NA","NA","101224","102421","NA","2406","NA","NA","102312","2417","NA","NA","102421","103151","102305","Flanker Task-AHC","24","16386","24","yes","1024"
"100","100","680.6","680.6","black","legacy","legacy","legacy","0","incongruent","uniform","1","undefined","1","h","0","0","0","24","24","24","0","24","0","24","0","0","0","24","24","24","Fri Sep  7 15:08:46 2018","1500","The main experiment item","yes","FlankerTaskAHC.osexp","/Users/abigailchristie/Desktop/Faulkenberry","no","mono","no","18","no","white","no","yes","768","legacy","24","24","/Users/abigailchristie/Desktop/Faulkenberry/AHC02.csv","legacy","Kafkaesque Koffka","3.2.5","0","h","NA","s","NA","NA","h","629","NA","56277","NA","NA","629","2","legacy","1024","2","48000","-16","experiment","SSHSS","2","even","58705","NA","NA","103160","104358","NA","2406","NA","NA","104251","2417","NA","NA","104359","104989","104243","Flanker Task-AHC","25","17015","25","yes","1024"
"100","100","679.653846154","679.653846154","black","legacy","legacy","legacy","0","congruent","uniform","1","undefined","1","s","0","0","0","25","25","25","0","25","0","25","0","0","0","25","25","25","Fri Sep  7 15:08:46 2018","1500","The main experiment item","yes","FlankerTaskAHC.osexp","/Users/abigailchristie/Desktop/Faulkenberry","no","mono","no","18","no","white","no","yes","768","legacy","25","25","/Users/abigailchristie/Desktop/Faulkenberry/AHC02.csv","legacy","Kafkaesque Koffka","3.2.5","0","s","NA","s","NA","NA","s","656","NA","56277","NA","NA","656","2","legacy","1024","2","48000","-16","experiment","SSSSS","2","even","58705","NA","NA","105000","106196","NA","2406","NA","NA","106087","2417","NA","NA","106196","106854","106080","Flanker Task-AHC","26","17671","26","yes","1024"
"100","100","680.333333333","680.333333333","black","legacy","legacy","legacy","0","incongruent","uniform","1","undefined","1","h","0","0","0","26","26","26","0","26","0","26","0","0","0","26","26","26","Fri Sep  7 15:08:46 2018","1500","The main experiment item","yes","FlankerTaskAHC.osexp","/Users/abigailchristie/Desktop/Faulkenberry","no","mono","no","18","no","white","no","yes","768","legacy","26","26","/Users/abigailchristie/Desktop/Faulkenberry/AHC02.csv","legacy","Kafkaesque Koffka","3.2.5","0","h","NA","s","NA","NA","h","698","NA","56277","NA","NA","698","2","legacy","1024","2","48000","-16","experiment","SSHSS","2","even","58705","NA","NA","106868","108066","NA","2406","NA","NA","107957","2417","NA","NA","108066","108765","107949","Flanker Task-AHC","27","18369","27","yes","1024"
"100","100","678.821428571","678.821428571","black","legacy","legacy","legacy","0","congruent","uniform","1","undefined","1","h","0","0","0","27","27","27","0","27","0","27","0","0","0","27","27","27","Fri Sep  7 15:08:46 2018","1500","The main experiment item","yes","FlankerTaskAHC.osexp","/Users/abigailchristie/Desktop/Faulkenberry","no","mono","no","18","no","white","no","yes","768","legacy","27","27","/Users/abigailchristie/Desktop/Faulkenberry/AHC02.csv","legacy","Kafkaesque Koffka","3.2.5","0","h","NA","s","NA","NA","h","638","NA","56277","NA","NA","638","2","legacy","1024","2","48000","-16","experiment","HHHHH","2","even","58705","NA","NA","108777","109974","NA","2406","NA","NA","109865","2417","NA","NA","109974","110613","109857","Flanker Task-AHC","28","19007","28","yes","1024"
"100","100","676.862068966","676.862068966","black","legacy","legacy","legacy","0","congruent","uniform","1","undefined","1","h","0","0","0","28","28","28","0","28","0","28","0","0","0","28","28","28","Fri Sep  7 15:08:46 2018","1500","The main experiment item","yes","FlankerTaskAHC.osexp","/Users/abigailchristie/Desktop/Faulkenberry","no","mono","no","18","no","white","no","yes","768","legacy","28","28","/Users/abigailchristie/Desktop/Faulkenberry/AHC02.csv","legacy","Kafkaesque Koffka","3.2.5","0","h","NA","s","NA","NA","h","622","NA","56277","NA","NA","622","2","legacy","1024","2","48000","-16","experiment","HHHHH","2","even","58705","NA","NA","110625","111822","NA","2406","NA","NA","111713","2417","NA","NA","111822","112446","111706","Flanker Task-AHC","29","19629","29","yes","1024"
"100","100","678.6","678.6","black","legacy","legacy","legacy","0","incongruent","uniform","1","undefined","1","s","0","0","0","29","29","29","0","29","0","29","0","0","0","29","29","29","Fri Sep  7 15:08:46 2018","1500","The main experiment item","yes","FlankerTaskAHC.osexp","/Users/abigailchristie/Desktop/Faulkenberry","no","mono","no","18","no","white","no","yes","768","legacy","29","29","/Users/abigailchristie/Desktop/Faulkenberry/AHC02.csv","legacy","Kafkaesque Koffka","3.2.5","0","s","NA","s","NA","NA","s","729","NA","56277","NA","NA","729","2","legacy","1024","2","48000","-16","experiment","HHSHH","2","even","58705","NA","NA","112460","113657","NA","2406","NA","NA","113548","2417","NA","NA","113657","114388","113541","Flanker Task-AHC","30","20358","30","yes","1024"
"100","100","678.774193548","678.774193548","black","legacy","legacy","legacy","0","incongruent","uniform","1","undefined","1","h","0","0","0","30","30","30","0","30","0","30","0","0","0","30","30","30","Fri Sep  7 15:08:46 2018","1500","The main experiment item","yes","FlankerTaskAHC.osexp","/Users/abigailchristie/Desktop/Faulkenberry","no","mono","no","18","no","white","no","yes","768","legacy","30","30","/Users/abigailchristie/Desktop/Faulkenberry/AHC02.csv","legacy","Kafkaesque Koffka","3.2.5","0","h","NA","s","NA","NA","h","684","NA","56277","NA","NA","684","2","legacy","1024","2","48000","-16","experiment","SSHSS","2","even","58705","NA","NA","114401","115598","NA","2406","NA","NA","115489","2417","NA","NA","115598","116284","115482","Flanker Task-AHC","31","21042","31","yes","1024"
"100","100","674.71875","674.71875","black","legacy","legacy","legacy","0","incongruent","uniform","1","undefined","1","h","0","0","0","31","31","31","0","31","0","31","0","0","0","31","31","31","Fri Sep  7 15:08:46 2018","1500","The main experiment item","yes","FlankerTaskAHC.osexp","/Users/abigailchristie/Desktop/Faulkenberry","no","mono","no","18","no","white","no","yes","768","legacy","31","31","/Users/abigailchristie/Desktop/Faulkenberry/AHC02.csv","legacy","Kafkaesque Koffka","3.2.5","0","h","NA","s","NA","NA","h","549","NA","56277","NA","NA","549","2","legacy","1024","2","48000","-16","experiment","SSHSS","2","even","58705","NA","NA","116296","117493","NA","2406","NA","NA","117384","2417","NA","NA","117493","118044","117377","Flanker Task-AHC","32","21591","32","yes","1024"
"100","100","673.424242424","673.424242424","black","legacy","legacy","legacy","0","incongruent","uniform","1","undefined","1","h","0","0","0","32","32","32","0","32","0","32","0","0","0","32","32","32","Fri Sep  7 15:08:46 2018","1500","The main experiment item","yes","FlankerTaskAHC.osexp","/Users/abigailchristie/Desktop/Faulkenberry","no","mono","no","18","no","white","no","yes","768","legacy","32","32","/Users/abigailchristie/Desktop/Faulkenberry/AHC02.csv","legacy","Kafkaesque Koffka","3.2.5","0","h","NA","s","NA","NA","h","632","NA","56277","NA","NA","632","2","legacy","1024","2","48000","-16","experiment","SSHSS","2","even","58705","NA","NA","118055","119251","NA","2406","NA","NA","119142","2417","NA","NA","119251","119885","119134","Flanker Task-AHC","33","22223","33","yes","1024"
"100","100","676.558823529","676.558823529","black","legacy","legacy","legacy","0","congruent","uniform","1","undefined","1","h","0","0","0","33","33","33","0","33","0","33","0","0","0","33","33","33","Fri Sep  7 15:08:46 2018","1500","The main experiment item","yes","FlankerTaskAHC.osexp","/Users/abigailchristie/Desktop/Faulkenberry","no","mono","no","18","no","white","no","yes","768","legacy","33","33","/Users/abigailchristie/Desktop/Faulkenberry/AHC02.csv","legacy","Kafkaesque Koffka","3.2.5","0","h","NA","s","NA","NA","h","780","NA","56277","NA","NA","780","2","legacy","1024","2","48000","-16","experiment","HHHHH","2","even","58705","NA","NA","119897","121094","NA","2406","NA","NA","120986","2417","NA","NA","121095","121877","120978","Flanker Task-AHC","34","23003","34","yes","1024"
"100","100","673.571428571","673.571428571","black","legacy","legacy","legacy","0","congruent","uniform","1","undefined","1","s","0","0","0","34","34","34","0","34","0","34","0","0","0","34","34","34","Fri Sep  7 15:08:46 2018","1500","The main experiment item","yes","FlankerTaskAHC.osexp","/Users/abigailchristie/Desktop/Faulkenberry","no","mono","no","18","no","white","no","yes","768","legacy","34","34","/Users/abigailchristie/Desktop/Faulkenberry/AHC02.csv","legacy","Kafkaesque Koffka","3.2.5","0","s","NA","s","NA","NA","s","572","NA","56277","NA","NA","572","2","legacy","1024","2","48000","-16","experiment","SSSSS","2","even","58705","NA","NA","121889","123087","NA","2406","NA","NA","122978","2417","NA","NA","123087","123661","122970","Flanker Task-AHC","35","23575","35","yes","1024"
"100","100","674.722222222","674.722222222","black","legacy","legacy","legacy","0","incongruent","uniform","1","undefined","1","s","0","0","0","35","35","35","0","35","0","35","0","0","0","35","35","35","Fri Sep  7 15:08:46 2018","1500","The main experiment item","yes","FlankerTaskAHC.osexp","/Users/abigailchristie/Desktop/Faulkenberry","no","mono","no","18","no","white","no","yes","768","legacy","35","35","/Users/abigailchristie/Desktop/Faulkenberry/AHC02.csv","legacy","Kafkaesque Koffka","3.2.5","0","s","NA","s","NA","NA","s","715","NA","56277","NA","NA","715","2","legacy","1024","2","48000","-16","experiment","HHSHH","2","even","58705","NA","NA","123675","124872","NA","2406","NA","NA","124763","2417","NA","NA","124872","125589","124755","Flanker Task-AHC","36","24290","36","yes","1024"
"100","100","671.567567568","671.567567568","black","legacy","legacy","legacy","0","congruent","uniform","1","undefined","1","h","0","0","0","36","36","36","0","36","0","36","0","0","0","36","36","36","Fri Sep  7 15:08:46 2018","1500","The main experiment item","yes","FlankerTaskAHC.osexp","/Users/abigailchristie/Desktop/Faulkenberry","no","mono","no","18","no","white","no","yes","768","legacy","36","36","/Users/abigailchristie/Desktop/Faulkenberry/AHC02.csv","legacy","Kafkaesque Koffka","3.2.5","0","h","NA","s","NA","NA","h","558","NA","56277","NA","NA","558","2","legacy","1024","2","48000","-16","experiment","HHHHH","2","even","58705","NA","NA","125603","126804","NA","2406","NA","NA","126695","2417","NA","NA","126804","127364","126688","Flanker Task-AHC","37","24848","37","yes","1024"
"100","100","669.052631579","669.052631579","black","legacy","legacy","legacy","0","incongruent","uniform","1","undefined","1","h","0","0","0","37","37","37","0","37","0","37","0","0","0","37","37","37","Fri Sep  7 15:08:46 2018","1500","The main experiment item","yes","FlankerTaskAHC.osexp","/Users/abigailchristie/Desktop/Faulkenberry","no","mono","no","18","no","white","no","yes","768","legacy","37","37","/Users/abigailchristie/Desktop/Faulkenberry/AHC02.csv","legacy","Kafkaesque Koffka","3.2.5","0","h","NA","s","NA","NA","h","576","NA","56277","NA","NA","576","2","legacy","1024","2","48000","-16","experiment","SSHSS","2","even","58705","NA","NA","127377","128578","NA","2406","NA","NA","128468","2417","NA","NA","128578","129156","128461","Flanker Task-AHC","38","25424","38","yes","1024"
"100","100","669.358974359","669.358974359","black","legacy","legacy","legacy","0","incongruent","uniform","1","undefined","1","s","0","0","0","38","38","38","0","38","0","38","0","0","0","38","38","38","Fri Sep  7 15:08:46 2018","1500","The main experiment item","yes","FlankerTaskAHC.osexp","/Users/abigailchristie/Desktop/Faulkenberry","no","mono","no","18","no","white","no","yes","768","legacy","38","38","/Users/abigailchristie/Desktop/Faulkenberry/AHC02.csv","legacy","Kafkaesque Koffka","3.2.5","0","s","NA","s","NA","NA","s","681","NA","56277","NA","NA","681","2","legacy","1024","2","48000","-16","experiment","HHSHH","2","even","58705","NA","NA","129165","130361","NA","2406","NA","NA","130253","2417","NA","NA","130361","131043","130245","Flanker Task-AHC","39","26105","39","yes","1024"
"100","100","669.45","669.45","black","legacy","legacy","legacy","0","congruent","uniform","1","undefined","1","s","0","0","0","39","39","39","0","39","0","39","0","0","0","39","39","39","Fri Sep  7 15:08:46 2018","1500","The main experiment item","yes","FlankerTaskAHC.osexp","/Users/abigailchristie/Desktop/Faulkenberry","no","mono","no","18","no","white","no","yes","768","legacy","39","39","/Users/abigailchristie/Desktop/Faulkenberry/AHC02.csv","legacy","Kafkaesque Koffka","3.2.5","0","s","NA","s","NA","NA","s","673","NA","56277","NA","NA","673","2","legacy","1024","2","48000","-16","experiment","SSSSS","2","even","58705","NA","NA","131055","132250","NA","2406","NA","NA","132142","2417","NA","NA","132250","132925","132135","Flanker Task-AHC","40","26778","40","yes","1024"
"100","100","665.902439024","665.902439024","black","legacy","legacy","legacy","0","congruent","uniform","1","undefined","1","h","0","0","0","40","40","40","0","40","0","40","0","0","0","40","40","40","Fri Sep  7 15:08:46 2018","1500","The main experiment item","yes","FlankerTaskAHC.osexp","/Users/abigailchristie/Desktop/Faulkenberry","no","mono","no","18","no","white","no","yes","768","legacy","40","40","/Users/abigailchristie/Desktop/Faulkenberry/AHC02.csv","legacy","Kafkaesque Koffka","3.2.5","0","h","NA","s","NA","NA","h","524","NA","56277","NA","NA","524","2","legacy","1024","2","48000","-16","experiment","HHHHH","2","even","58705","NA","NA","132939","134135","NA","2406","NA","NA","134026","2417","NA","NA","134135","134660","134019","Flanker Task-AHC","41","27302","41","yes","1024"
"100","100","664.904761905","664.904761905","black","legacy","legacy","legacy","0","incongruent","uniform","1","undefined","1","h","0","0","0","41","41","41","0","41","0","41","0","0","0","41","41","41","Fri Sep  7 15:08:46 2018","1500","The main experiment item","yes","FlankerTaskAHC.osexp","/Users/abigailchristie/Desktop/Faulkenberry","no","mono","no","18","no","white","no","yes","768","legacy","41","41","/Users/abigailchristie/Desktop/Faulkenberry/AHC02.csv","legacy","Kafkaesque Koffka","3.2.5","0","h","NA","s","NA","NA","h","624","NA","56277","NA","NA","624","2","legacy","1024","2","48000","-16","experiment","SSHSS","2","even","58705","NA","NA","134672","135867","NA","2406","NA","NA","135758","2417","NA","NA","135867","136493","135751","Flanker Task-AHC","42","27926","42","yes","1024"
"100","100","664.255813953","664.255813953","black","legacy","legacy","legacy","0","incongruent","uniform","1","undefined","1","s","0","0","0","42","42","42","0","42","0","42","0","0","0","42","42","42","Fri Sep  7 15:08:46 2018","1500","The main experiment item","yes","FlankerTaskAHC.osexp","/Users/abigailchristie/Desktop/Faulkenberry","no","mono","no","18","no","white","no","yes","768","legacy","42","42","/Users/abigailchristie/Desktop/Faulkenberry/AHC02.csv","legacy","Kafkaesque Koffka","3.2.5","0","s","NA","s","NA","NA","s","637","NA","56277","NA","NA","637","2","legacy","1024","2","48000","-16","experiment","HHSHH","2","even","58705","NA","NA","136505","137701","NA","2406","NA","NA","137592","2417","NA","NA","137701","138340","137585","Flanker Task-AHC","43","28563","43","yes","1024"
"100","100","663.75","663.75","black","legacy","legacy","legacy","0","congruent","uniform","1","undefined","1","h","0","0","0","43","43","43","0","43","0","43","0","0","0","43","43","43","Fri Sep  7 15:08:46 2018","1500","The main experiment item","yes","FlankerTaskAHC.osexp","/Users/abigailchristie/Desktop/Faulkenberry","no","mono","no","18","no","white","no","yes","768","legacy","43","43","/Users/abigailchristie/Desktop/Faulkenberry/AHC02.csv","legacy","Kafkaesque Koffka","3.2.5","0","h","NA","s","NA","NA","h","642","NA","56277","NA","NA","642","2","legacy","1024","2","48000","-16","experiment","HHHHH","2","even","58705","NA","NA","138354","139551","NA","2406","NA","NA","139442","2417","NA","NA","139551","140195","139434","Flanker Task-AHC","44","29205","44","yes","1024"
"100","100","661.422222222","661.422222222","black","legacy","legacy","legacy","0","congruent","uniform","1","undefined","1","s","0","0","0","44","44","44","0","44","0","44","0","0","0","44","44","44","Fri Sep  7 15:08:46 2018","1500","The main experiment item","yes","FlankerTaskAHC.osexp","/Users/abigailchristie/Desktop/Faulkenberry","no","mono","no","18","no","white","no","yes","768","legacy","44","44","/Users/abigailchristie/Desktop/Faulkenberry/AHC02.csv","legacy","Kafkaesque Koffka","3.2.5","0","s","NA","s","NA","NA","s","559","NA","56277","NA","NA","559","2","legacy","1024","2","48000","-16","experiment","SSSSS","2","even","58705","NA","NA","140205","141403","NA","2406","NA","NA","141294","2417","NA","NA","141403","141964","141287","Flanker Task-AHC","45","29764","45","yes","1024"
"100","100","661.195652174","661.195652174","black","legacy","legacy","legacy","0","incongruent","uniform","1","undefined","1","h","0","0","0","45","45","45","0","45","0","45","0","0","0","45","45","45","Fri Sep  7 15:08:46 2018","1500","The main experiment item","yes","FlankerTaskAHC.osexp","/Users/abigailchristie/Desktop/Faulkenberry","no","mono","no","18","no","white","no","yes","768","legacy","45","45","/Users/abigailchristie/Desktop/Faulkenberry/AHC02.csv","legacy","Kafkaesque Koffka","3.2.5","0","h","NA","s","NA","NA","h","651","NA","56277","NA","NA","651","2","legacy","1024","2","48000","-16","experiment","SSHSS","2","even","58705","NA","NA","141976","143175","NA","2406","NA","NA","143066","2417","NA","NA","143175","143828","143055","Flanker Task-AHC","46","30415","46","yes","1024"
"100","100","659.212765957","659.212765957","black","legacy","legacy","legacy","0","congruent","uniform","1","undefined","1","h","0","0","0","46","46","46","0","46","0","46","0","0","0","46","46","46","Fri Sep  7 15:08:46 2018","1500","The main experiment item","yes","FlankerTaskAHC.osexp","/Users/abigailchristie/Desktop/Faulkenberry","no","mono","no","18","no","white","no","yes","768","legacy","46","46","/Users/abigailchristie/Desktop/Faulkenberry/AHC02.csv","legacy","Kafkaesque Koffka","3.2.5","0","h","NA","s","NA","NA","h","568","NA","56277","NA","NA","568","2","legacy","1024","2","48000","-16","experiment","HHHHH","2","even","58705","NA","NA","143839","145034","NA","2406","NA","NA","144925","2417","NA","NA","145034","145605","144918","Flanker Task-AHC","47","30983","47","yes","1024"
"100","100","658.729166667","658.729166667","black","legacy","legacy","legacy","0","incongruent","uniform","1","undefined","1","s","0","0","0","47","47","47","0","47","0","47","0","0","0","47","47","47","Fri Sep  7 15:08:46 2018","1500","The main experiment item","yes","FlankerTaskAHC.osexp","/Users/abigailchristie/Desktop/Faulkenberry","no","mono","no","18","no","white","no","yes","768","legacy","47","47","/Users/abigailchristie/Desktop/Faulkenberry/AHC02.csv","legacy","Kafkaesque Koffka","3.2.5","0","s","NA","s","NA","NA","s","636","NA","56277","NA","NA","636","2","legacy","1024","2","48000","-16","experiment","HHSHH","2","even","58705","NA","NA","145616","146814","NA","2406","NA","NA","146705","2417","NA","NA","146814","147452","146698","Flanker Task-AHC","48","31619","48","yes","1024"
"100","100","657.632653061","657.632653061","black","legacy","legacy","legacy","0","congruent","uniform","1","undefined","1","s","0","0","0","48","48","48","0","48","0","48","0","0","0","48","48","48","Fri Sep  7 15:08:46 2018","1500","The main experiment item","yes","FlankerTaskAHC.osexp","/Users/abigailchristie/Desktop/Faulkenberry","no","mono","no","18","no","white","no","yes","768","legacy","48","48","/Users/abigailchristie/Desktop/Faulkenberry/AHC02.csv","legacy","Kafkaesque Koffka","3.2.5","0","s","NA","s","NA","NA","s","605","NA","56277","NA","NA","605","2","legacy","1024","2","48000","-16","experiment","SSSSS","2","even","58705","NA","NA","147463","148660","NA","2406","NA","NA","148551","2417","NA","NA","148660","149268","148544","Flanker Task-AHC","49","32224","49","yes","1024"
"100","100","656.56","656.56","black","legacy","legacy","legacy","0","incongruent","uniform","1","undefined","1","s","0","0","0","49","49","49","0","49","0","49","0","0","0","49","49","49","Fri Sep  7 15:08:46 2018","1500","The main experiment item","yes","FlankerTaskAHC.osexp","/Users/abigailchristie/Desktop/Faulkenberry","no","mono","no","18","no","white","no","yes","768","legacy","49","49","/Users/abigailchristie/Desktop/Faulkenberry/AHC02.csv","legacy","Kafkaesque Koffka","3.2.5","0","s","NA","s","NA","NA","s","604","NA","56277","NA","NA","604","2","legacy","1024","2","48000","-16","experiment","HHSHH","2","even","58705","NA","NA","149280","150477","NA","2406","NA","NA","150368","2417","NA","NA","150477","151083","150360","Flanker Task-AHC","50","32828","50","yes","1024"
"100","100","655.901960784","655.901960784","black","legacy","legacy","legacy","0","incongruent","uniform","1","undefined","1","h","0","0","0","50","50","50","0","50","0","50","0","0","0","50","50","50","Fri Sep  7 15:08:46 2018","1500","The main experiment item","yes","FlankerTaskAHC.osexp","/Users/abigailchristie/Desktop/Faulkenberry","no","mono","no","18","no","white","no","yes","768","legacy","50","50","/Users/abigailchristie/Desktop/Faulkenberry/AHC02.csv","legacy","Kafkaesque Koffka","3.2.5","0","h","NA","s","NA","NA","h","623","NA","56277","NA","NA","623","2","legacy","1024","2","48000","-16","experiment","SSHSS","2","even","58705","NA","NA","151096","152291","NA","2406","NA","NA","152182","2417","NA","NA","152291","152916","152175","Flanker Task-AHC","51","33451","51","yes","1024"
"100","100","653.692307692","653.692307692","black","legacy","legacy","legacy","0","congruent","uniform","1","undefined","1","h","0","0","0","51","51","51","0","51","0","51","0","0","0","51","51","51","Fri Sep  7 15:08:46 2018","1500","The main experiment item","yes","FlankerTaskAHC.osexp","/Users/abigailchristie/Desktop/Faulkenberry","no","mono","no","18","no","white","no","yes","768","legacy","51","51","/Users/abigailchristie/Desktop/Faulkenberry/AHC02.csv","legacy","Kafkaesque Koffka","3.2.5","0","h","NA","s","NA","NA","h","541","NA","56277","NA","NA","541","2","legacy","1024","2","48000","-16","experiment","HHHHH","2","even","58705","NA","NA","152928","154125","NA","2406","NA","NA","154015","2417","NA","NA","154125","154668","154007","Flanker Task-AHC","52","33992","52","yes","1024"
"100","100","651.849056604","651.849056604","black","legacy","legacy","legacy","0","congruent","uniform","1","undefined","1","s","0","0","0","52","52","52","0","52","0","52","0","0","0","52","52","52","Fri Sep  7 15:08:46 2018","1500","The main experiment item","yes","FlankerTaskAHC.osexp","/Users/abigailchristie/Desktop/Faulkenberry","no","mono","no","18","no","white","no","yes","768","legacy","52","52","/Users/abigailchristie/Desktop/Faulkenberry/AHC02.csv","legacy","Kafkaesque Koffka","3.2.5","0","s","NA","s","NA","NA","s","556","NA","56277","NA","NA","556","2","legacy","1024","2","48000","-16","experiment","SSSSS","2","even","58705","NA","NA","154682","155877","NA","2406","NA","NA","155767","2417","NA","NA","155877","156435","155760","Flanker Task-AHC","53","34548","53","yes","1024"
"100","100","653.62962963","653.62962963","black","legacy","legacy","legacy","0","incongruent","uniform","1","undefined","1","s","0","0","0","53","53","53","0","53","0","53","0","0","0","53","53","53","Fri Sep  7 15:08:46 2018","1500","The main experiment item","yes","FlankerTaskAHC.osexp","/Users/abigailchristie/Desktop/Faulkenberry","no","mono","no","18","no","white","no","yes","768","legacy","53","53","/Users/abigailchristie/Desktop/Faulkenberry/AHC02.csv","legacy","Kafkaesque Koffka","3.2.5","0","s","NA","s","NA","NA","s","748","NA","56277","NA","NA","748","2","legacy","1024","2","48000","-16","experiment","HHSHH","2","even","58705","NA","NA","156447","157645","NA","2406","NA","NA","157536","2417","NA","NA","157645","158395","157529","Flanker Task-AHC","54","35296","54","yes","1024"
"100","100","652.109090909","652.109090909","black","legacy","legacy","legacy","0","incongruent","uniform","1","undefined","1","s","0","0","0","54","54","54","0","54","0","54","0","0","0","54","54","54","Fri Sep  7 15:08:46 2018","1500","The main experiment item","yes","FlankerTaskAHC.osexp","/Users/abigailchristie/Desktop/Faulkenberry","no","mono","no","18","no","white","no","yes","768","legacy","54","54","/Users/abigailchristie/Desktop/Faulkenberry/AHC02.csv","legacy","Kafkaesque Koffka","3.2.5","0","s","NA","s","NA","NA","s","570","NA","56277","NA","NA","570","2","legacy","1024","2","48000","-16","experiment","HHSHH","2","even","58705","NA","NA","158406","159607","NA","2406","NA","NA","159498","2417","NA","NA","159607","160179","159490","Flanker Task-AHC","55","35866","55","yes","1024"
"100","100","650.696428571","650.696428571","black","legacy","legacy","legacy","0","congruent","uniform","1","undefined","1","s","0","0","0","55","55","55","0","55","0","55","0","0","0","55","55","55","Fri Sep  7 15:08:46 2018","1500","The main experiment item","yes","FlankerTaskAHC.osexp","/Users/abigailchristie/Desktop/Faulkenberry","no","mono","no","18","no","white","no","yes","768","legacy","55","55","/Users/abigailchristie/Desktop/Faulkenberry/AHC02.csv","legacy","Kafkaesque Koffka","3.2.5","0","s","NA","s","NA","NA","s","573","NA","56277","NA","NA","573","2","legacy","1024","2","48000","-16","experiment","SSSSS","2","even","58705","NA","NA","160192","161389","NA","2406","NA","NA","161280","2417","NA","NA","161389","161964","161272","Flanker Task-AHC","56","36439","56","yes","1024"
"100","100","651.824561404","651.824561404","black","legacy","legacy","legacy","0","incongruent","uniform","1","undefined","1","h","0","0","0","56","56","56","0","56","0","56","0","0","0","56","56","56","Fri Sep  7 15:08:46 2018","1500","The main experiment item","yes","FlankerTaskAHC.osexp","/Users/abigailchristie/Desktop/Faulkenberry","no","mono","no","18","no","white","no","yes","768","legacy","56","56","/Users/abigailchristie/Desktop/Faulkenberry/AHC02.csv","legacy","Kafkaesque Koffka","3.2.5","0","h","NA","s","NA","NA","h","715","NA","56277","NA","NA","715","2","legacy","1024","2","48000","-16","experiment","SSHSS","2","even","58705","NA","NA","161978","163174","NA","2406","NA","NA","163064","2417","NA","NA","163174","163892","163057","Flanker Task-AHC","57","37154","57","yes","1024"
"100","100","651.310344828","651.310344828","black","legacy","legacy","legacy","0","congruent","uniform","1","undefined","1","h","0","0","0","57","57","57","0","57","0","57","0","0","0","57","57","57","Fri Sep  7 15:08:46 2018","1500","The main experiment item","yes","FlankerTaskAHC.osexp","/Users/abigailchristie/Desktop/Faulkenberry","no","mono","no","18","no","white","no","yes","768","legacy","57","57","/Users/abigailchristie/Desktop/Faulkenberry/AHC02.csv","legacy","Kafkaesque Koffka","3.2.5","0","h","NA","s","NA","NA","h","622","NA","56277","NA","NA","622","2","legacy","1024","2","48000","-16","experiment","HHHHH","2","even","58705","NA","NA","163903","165099","NA","2406","NA","NA","164989","2417","NA","NA","165099","165723","164982","Flanker Task-AHC","58","37776","58","yes","1024"
"100","100","650.677966102","650.677966102","black","legacy","legacy","legacy","0","congruent","uniform","1","undefined","1","h","0","0","0","58","58","58","0","58","0","58","0","0","0","58","58","58","Fri Sep  7 15:08:46 2018","1500","The main experiment item","yes","FlankerTaskAHC.osexp","/Users/abigailchristie/Desktop/Faulkenberry","no","mono","no","18","no","white","no","yes","768","legacy","58","58","/Users/abigailchristie/Desktop/Faulkenberry/AHC02.csv","legacy","Kafkaesque Koffka","3.2.5","0","h","NA","s","NA","NA","h","614","NA","56277","NA","NA","614","2","legacy","1024","2","48000","-16","experiment","HHHHH","2","even","58705","NA","NA","165738","166939","NA","2406","NA","NA","166830","2417","NA","NA","166939","167556","166822","Flanker Task-AHC","59","38390","59","yes","1024"
"100","100","648.483333333","648.483333333","black","legacy","legacy","legacy","0","congruent","uniform","1","undefined","1","h","0","0","0","59","59","59","0","59","0","59","0","0","0","59","59","59","Fri Sep  7 15:08:46 2018","1500","The main experiment item","yes","FlankerTaskAHC.osexp","/Users/abigailchristie/Desktop/Faulkenberry","no","mono","no","18","no","white","no","yes","768","legacy","59","59","/Users/abigailchristie/Desktop/Faulkenberry/AHC02.csv","legacy","Kafkaesque Koffka","3.2.5","0","h","NA","s","NA","NA","h","519","NA","56277","NA","NA","519","2","legacy","1024","2","48000","-16","experiment","HHHHH","2","even","58705","NA","NA","167566","168761","NA","2406","NA","NA","168653","2417","NA","NA","168761","169283","168645","Flanker Task-AHC","60","38909","60","yes","1024"
"100","100","650.180327869","650.180327869","black","legacy","legacy","legacy","0","incongruent","uniform","1","undefined","1","s","0","0","0","60","60","60","0","60","0","60","0","0","0","60","60","60","Fri Sep  7 15:08:46 2018","1500","The main experiment item","yes","FlankerTaskAHC.osexp","/Users/abigailchristie/Desktop/Faulkenberry","no","mono","no","18","no","white","no","yes","768","legacy","60","60","/Users/abigailchristie/Desktop/Faulkenberry/AHC02.csv","legacy","Kafkaesque Koffka","3.2.5","0","s","NA","s","NA","NA","s","752","NA","56277","NA","NA","752","2","legacy","1024","2","48000","-16","experiment","HHSHH","2","even","58705","NA","NA","169296","170496","NA","2406","NA","NA","170386","2417","NA","NA","170496","171250","170379","Flanker Task-AHC","61","39661","61","yes","1024"
"100","100","652.306451613","652.306451613","black","legacy","legacy","legacy","0","incongruent","uniform","1","undefined","1","h","0","0","0","61","61","61","0","61","0","61","0","0","0","61","61","61","Fri Sep  7 15:08:46 2018","1500","The main experiment item","yes","FlankerTaskAHC.osexp","/Users/abigailchristie/Desktop/Faulkenberry","no","mono","no","18","no","white","no","yes","768","legacy","61","61","/Users/abigailchristie/Desktop/Faulkenberry/AHC02.csv","legacy","Kafkaesque Koffka","3.2.5","0","h","NA","s","NA","NA","h","782","NA","56277","NA","NA","782","2","legacy","1024","2","48000","-16","experiment","SSHSS","2","even","58705","NA","NA","171259","172458","NA","2406","NA","NA","172349","2417","NA","NA","172458","173242","172339","Flanker Task-AHC","62","40443","62","yes","1024"
"100","100","654.238095238","654.238095238","black","legacy","legacy","legacy","0","congruent","uniform","1","undefined","1","h","0","0","0","62","62","62","0","62","0","62","0","0","0","62","62","62","Fri Sep  7 15:08:46 2018","1500","The main experiment item","yes","FlankerTaskAHC.osexp","/Users/abigailchristie/Desktop/Faulkenberry","no","mono","no","18","no","white","no","yes","768","legacy","62","62","/Users/abigailchristie/Desktop/Faulkenberry/AHC02.csv","legacy","Kafkaesque Koffka","3.2.5","0","h","NA","s","NA","NA","h","774","NA","56277","NA","NA","774","2","legacy","1024","2","48000","-16","experiment","HHHHH","2","even","58705","NA","NA","173253","174450","NA","2406","NA","NA","174340","2417","NA","NA","174450","175226","174332","Flanker Task-AHC","63","41217","63","yes","1024"
"100","100","655.34375","655.34375","black","legacy","legacy","legacy","0","congruent","uniform","1","undefined","1","s","0","0","0","63","63","63","0","63","0","63","0","0","0","63","63","63","Fri Sep  7 15:08:46 2018","1500","The main experiment item","yes","FlankerTaskAHC.osexp","/Users/abigailchristie/Desktop/Faulkenberry","no","mono","no","18","no","white","no","yes","768","legacy","63","63","/Users/abigailchristie/Desktop/Faulkenberry/AHC02.csv","legacy","Kafkaesque Koffka","3.2.5","0","s","NA","s","NA","NA","s","725","NA","56277","NA","NA","725","2","legacy","1024","2","48000","-16","experiment","SSSSS","2","even","58705","NA","NA","175239","176435","NA","2406","NA","NA","176326","2417","NA","NA","176435","177162","176318","Flanker Task-AHC","64","41942","64","yes","1024"
"100","100","655.046153846","655.046153846","black","legacy","legacy","legacy","0","congruent","uniform","1","undefined","1","h","0","0","0","64","64","64","0","64","0","64","0","0","0","64","64","64","Fri Sep  7 15:08:46 2018","1500","The main experiment item","yes","FlankerTaskAHC.osexp","/Users/abigailchristie/Desktop/Faulkenberry","no","mono","no","18","no","white","no","yes","768","legacy","64","64","/Users/abigailchristie/Desktop/Faulkenberry/AHC02.csv","legacy","Kafkaesque Koffka","3.2.5","0","h","NA","s","NA","NA","h","636","NA","56277","NA","NA","636","2","legacy","1024","2","48000","-16","experiment","HHHHH","2","even","58705","NA","NA","177176","178372","NA","2406","NA","NA","178263","2417","NA","NA","178372","179010","178256","Flanker Task-AHC","65","42578","65","yes","1024"
"100","100","656.136363636","656.136363636","black","legacy","legacy","legacy","0","congruent","uniform","1","undefined","1","s","0","0","0","65","65","65","0","65","0","65","0","0","0","65","65","65","Fri Sep  7 15:08:46 2018","1500","The main experiment item","yes","FlankerTaskAHC.osexp","/Users/abigailchristie/Desktop/Faulkenberry","no","mono","no","18","no","white","no","yes","768","legacy","65","65","/Users/abigailchristie/Desktop/Faulkenberry/AHC02.csv","legacy","Kafkaesque Koffka","3.2.5","0","s","NA","s","NA","NA","s","727","NA","56277","NA","NA","727","2","legacy","1024","2","48000","-16","experiment","SSSSS","2","even","58705","NA","NA","179021","180218","NA","2406","NA","NA","180109","2417","NA","NA","180218","180947","180101","Flanker Task-AHC","66","43305","66","yes","1024"
"100","100","659.462686567","659.462686567","black","legacy","legacy","legacy","0","incongruent","uniform","1","undefined","1","s","0","0","0","66","66","66","0","66","0","66","0","0","0","66","66","66","Fri Sep  7 15:08:46 2018","1500","The main experiment item","yes","FlankerTaskAHC.osexp","/Users/abigailchristie/Desktop/Faulkenberry","no","mono","no","18","no","white","no","yes","768","legacy","66","66","/Users/abigailchristie/Desktop/Faulkenberry/AHC02.csv","legacy","Kafkaesque Koffka","3.2.5","0","s","NA","s","NA","NA","s","879","NA","56277","NA","NA","879","2","legacy","1024","2","48000","-16","experiment","HHSHH","2","even","58705","NA","NA","180958","182153","NA","2406","NA","NA","182044","2417","NA","NA","182153","183034","182037","Flanker Task-AHC","67","44184","67","yes","1024"
"100","100","658.014705882","658.014705882","black","legacy","legacy","legacy","0","congruent","uniform","1","undefined","1","h","0","0","0","67","67","67","0","67","0","67","0","0","0","67","67","67","Fri Sep  7 15:08:46 2018","1500","The main experiment item","yes","FlankerTaskAHC.osexp","/Users/abigailchristie/Desktop/Faulkenberry","no","mono","no","18","no","white","no","yes","768","legacy","67","67","/Users/abigailchristie/Desktop/Faulkenberry/AHC02.csv","legacy","Kafkaesque Koffka","3.2.5","0","h","NA","s","NA","NA","h","561","NA","56277","NA","NA","561","2","legacy","1024","2","48000","-16","experiment","HHHHH","2","even","58705","NA","NA","183045","184242","NA","2406","NA","NA","184133","2417","NA","NA","184242","184805","184126","Flanker Task-AHC","68","44745","68","yes","1024"
"100","100","659.956521739","659.956521739","black","legacy","legacy","legacy","0","incongruent","uniform","1","undefined","1","s","0","0","0","68","68","68","0","68","0","68","0","0","0","68","68","68","Fri Sep  7 15:08:46 2018","1500","The main experiment item","yes","FlankerTaskAHC.osexp","/Users/abigailchristie/Desktop/Faulkenberry","no","mono","no","18","no","white","no","yes","768","legacy","68","68","/Users/abigailchristie/Desktop/Faulkenberry/AHC02.csv","legacy","Kafkaesque Koffka","3.2.5","0","s","NA","s","NA","NA","s","792","NA","56277","NA","NA","792","2","legacy","1024","2","48000","-16","experiment","HHSHH","2","even","58705","NA","NA","184817","186017","NA","2406","NA","NA","185909","2417","NA","NA","186017","186811","185902","Flanker Task-AHC","69","45537","69","yes","1024"
"100","100","658.457142857","658.457142857","black","legacy","legacy","legacy","0","congruent","uniform","1","undefined","1","h","0","0","0","69","69","69","0","69","0","69","0","0","0","69","69","69","Fri Sep  7 15:08:46 2018","1500","The main experiment item","yes","FlankerTaskAHC.osexp","/Users/abigailchristie/Desktop/Faulkenberry","no","mono","no","18","no","white","no","yes","768","legacy","69","69","/Users/abigailchristie/Desktop/Faulkenberry/AHC02.csv","legacy","Kafkaesque Koffka","3.2.5","0","h","NA","s","NA","NA","h","555","NA","56277","NA","NA","555","2","legacy","1024","2","48000","-16","experiment","HHHHH","2","even","58705","NA","NA","186824","188021","NA","2406","NA","NA","187912","2417","NA","NA","188021","188578","187904","Flanker Task-AHC","70","46092","70","yes","1024"
"100","100","660.535211268","660.535211268","black","legacy","legacy","legacy","0","incongruent","uniform","1","undefined","1","h","0","0","0","70","70","70","0","70","0","70","0","0","0","70","70","70","Fri Sep  7 15:08:46 2018","1500","The main experiment item","yes","FlankerTaskAHC.osexp","/Users/abigailchristie/Desktop/Faulkenberry","no","mono","no","18","no","white","no","yes","768","legacy","70","70","/Users/abigailchristie/Desktop/Faulkenberry/AHC02.csv","legacy","Kafkaesque Koffka","3.2.5","0","h","NA","s","NA","NA","h","806","NA","56277","NA","NA","806","2","legacy","1024","2","48000","-16","experiment","SSHSS","2","even","58705","NA","NA","188591","189786","NA","2406","NA","NA","189678","2417","NA","NA","189786","190595","189671","Flanker Task-AHC","71","46898","71","yes","1024"
"100","100","663.041666667","663.041666667","black","legacy","legacy","legacy","0","incongruent","uniform","1","undefined","1","s","0","0","0","71","71","71","0","71","0","71","0","0","0","71","71","71","Fri Sep  7 15:08:46 2018","1500","The main experiment item","yes","FlankerTaskAHC.osexp","/Users/abigailchristie/Desktop/Faulkenberry","no","mono","no","18","no","white","no","yes","768","legacy","71","71","/Users/abigailchristie/Desktop/Faulkenberry/AHC02.csv","legacy","Kafkaesque Koffka","3.2.5","0","s","NA","s","NA","NA","s","841","NA","56277","NA","NA","841","2","legacy","1024","2","48000","-16","experiment","HHSHH","2","even","58705","NA","NA","190608","191806","NA","2406","NA","NA","191697","2417","NA","NA","191807","192650","191688","Flanker Task-AHC","72","47739","72","yes","1024"
"100","100","663.02739726","663.02739726","black","legacy","legacy","legacy","0","congruent","uniform","1","undefined","1","s","0","0","0","72","72","72","0","72","0","72","0","0","0","72","72","72","Fri Sep  7 15:08:46 2018","1500","The main experiment item","yes","FlankerTaskAHC.osexp","/Users/abigailchristie/Desktop/Faulkenberry","no","mono","no","18","no","white","no","yes","768","legacy","72","72","/Users/abigailchristie/Desktop/Faulkenberry/AHC02.csv","legacy","Kafkaesque Koffka","3.2.5","0","s","NA","s","NA","NA","s","662","NA","56277","NA","NA","662","2","legacy","1024","2","48000","-16","experiment","SSSSS","2","even","58705","NA","NA","192662","193858","NA","2406","NA","NA","193749","2417","NA","NA","193858","194523","193742","Flanker Task-AHC","73","48401","73","yes","1024"
"100","100","661.675675676","661.675675676","black","legacy","legacy","legacy","0","incongruent","uniform","1","undefined","1","h","0","0","0","73","73","73","0","73","0","73","0","0","0","73","73","73","Fri Sep  7 15:08:46 2018","1500","The main experiment item","yes","FlankerTaskAHC.osexp","/Users/abigailchristie/Desktop/Faulkenberry","no","mono","no","18","no","white","no","yes","768","legacy","73","73","/Users/abigailchristie/Desktop/Faulkenberry/AHC02.csv","legacy","Kafkaesque Koffka","3.2.5","0","h","NA","s","NA","NA","h","563","NA","56277","NA","NA","563","2","legacy","1024","2","48000","-16","experiment","SSHSS","2","even","58705","NA","NA","194536","195732","NA","2406","NA","NA","195623","2417","NA","NA","195732","196298","195616","Flanker Task-AHC","74","48964","74","yes","1024"
"100","100","661.533333333","661.533333333","black","legacy","legacy","legacy","0","incongruent","uniform","1","undefined","1","s","0","0","0","74","74","74","0","74","0","74","0","0","0","74","74","74","Fri Sep  7 15:08:46 2018","1500","The main experiment item","yes","FlankerTaskAHC.osexp","/Users/abigailchristie/Desktop/Faulkenberry","no","mono","no","18","no","white","no","yes","768","legacy","74","74","/Users/abigailchristie/Desktop/Faulkenberry/AHC02.csv","legacy","Kafkaesque Koffka","3.2.5","0","s","NA","s","NA","NA","s","651","NA","56277","NA","NA","651","2","legacy","1024","2","48000","-16","experiment","HHSHH","2","even","58705","NA","NA","196311","197508","NA","2406","NA","NA","197399","2417","NA","NA","197508","198162","197391","Flanker Task-AHC","75","49615","75","yes","1024"
"100","100","659.526315789","659.526315789","black","legacy","legacy","legacy","0","congruent","uniform","1","undefined","1","h","0","0","0","75","75","75","0","75","0","75","0","0","0","75","75","75","Fri Sep  7 15:08:46 2018","1500","The main experiment item","yes","FlankerTaskAHC.osexp","/Users/abigailchristie/Desktop/Faulkenberry","no","mono","no","18","no","white","no","yes","768","legacy","75","75","/Users/abigailchristie/Desktop/Faulkenberry/AHC02.csv","legacy","Kafkaesque Koffka","3.2.5","0","h","NA","s","NA","NA","h","509","NA","56277","NA","NA","509","2","legacy","1024","2","48000","-16","experiment","HHHHH","2","even","58705","NA","NA","198173","199371","NA","2406","NA","NA","199261","2417","NA","NA","199371","199883","199254","Flanker Task-AHC","76","50124","76","yes","1024"
"100","100","657.948051948","657.948051948","black","legacy","legacy","legacy","0","congruent","uniform","1","undefined","1","h","0","0","0","76","76","76","0","76","0","76","0","0","0","76","76","76","Fri Sep  7 15:08:46 2018","1500","The main experiment item","yes","FlankerTaskAHC.osexp","/Users/abigailchristie/Desktop/Faulkenberry","no","mono","no","18","no","white","no","yes","768","legacy","76","76","/Users/abigailchristie/Desktop/Faulkenberry/AHC02.csv","legacy","Kafkaesque Koffka","3.2.5","0","h","NA","s","NA","NA","h","538","NA","56277","NA","NA","538","2","legacy","1024","2","48000","-16","experiment","HHHHH","2","even","58705","NA","NA","199896","201094","NA","2406","NA","NA","200985","2417","NA","NA","201094","201634","200977","Flanker Task-AHC","77","50662","77","yes","1024"
"100","100","658.717948718","658.717948718","black","legacy","legacy","legacy","0","congruent","uniform","1","undefined","1","s","0","0","0","77","77","77","0","77","0","77","0","0","0","77","77","77","Fri Sep  7 15:08:46 2018","1500","The main experiment item","yes","FlankerTaskAHC.osexp","/Users/abigailchristie/Desktop/Faulkenberry","no","mono","no","18","no","white","no","yes","768","legacy","77","77","/Users/abigailchristie/Desktop/Faulkenberry/AHC02.csv","legacy","Kafkaesque Koffka","3.2.5","0","s","NA","s","NA","NA","s","718","NA","56277","NA","NA","718","2","legacy","1024","2","48000","-16","experiment","SSSSS","2","even","58705","NA","NA","201647","202842","NA","2406","NA","NA","202733","2417","NA","NA","202842","203563","202725","Flanker Task-AHC","78","51380","78","yes","1024"
"100","100","658.430379747","658.430379747","black","legacy","legacy","legacy","0","congruent","uniform","1","undefined","1","s","0","0","0","78","78","78","0","78","0","78","0","0","0","78","78","78","Fri Sep  7 15:08:46 2018","1500","The main experiment item","yes","FlankerTaskAHC.osexp","/Users/abigailchristie/Desktop/Faulkenberry","no","mono","no","18","no","white","no","yes","768","legacy","78","78","/Users/abigailchristie/Desktop/Faulkenberry/AHC02.csv","legacy","Kafkaesque Koffka","3.2.5","0","s","NA","s","NA","NA","s","636","NA","56277","NA","NA","636","2","legacy","1024","2","48000","-16","experiment","SSSSS","2","even","58705","NA","NA","203575","204771","NA","2406","NA","NA","204662","2417","NA","NA","204771","205409","204654","Flanker Task-AHC","79","52016","79","yes","1024"
"100","100","657.3625","657.3625","black","legacy","legacy","legacy","0","congruent","uniform","1","undefined","1","s","0","0","0","79","79","79","0","79","0","79","0","0","0","79","79","79","Fri Sep  7 15:08:46 2018","1500","The main experiment item","yes","FlankerTaskAHC.osexp","/Users/abigailchristie/Desktop/Faulkenberry","no","mono","no","18","no","white","no","yes","768","legacy","79","79","/Users/abigailchristie/Desktop/Faulkenberry/AHC02.csv","legacy","Kafkaesque Koffka","3.2.5","0","s","NA","s","NA","NA","s","573","NA","56277","NA","NA","573","2","legacy","1024","2","48000","-16","experiment","SSSSS","2","even","58705","NA","NA","205420","206618","NA","2406","NA","NA","206509","2417","NA","NA","206618","207193","206501","Flanker Task-AHC","80","52589","80","yes","1024"
"100","100","658.666666667","658.666666667","black","legacy","legacy","legacy","0","congruent","uniform","1","undefined","1","s","0","0","0","80","80","80","0","80","0","80","0","0","0","80","80","80","Fri Sep  7 15:08:46 2018","600","The main experiment item","yes","FlankerTaskAHC.osexp","/Users/abigailchristie/Desktop/Faulkenberry","no","mono","no","18","no","white","no","yes","768","legacy","0","79","/Users/abigailchristie/Desktop/Faulkenberry/AHC02.csv","legacy","Kafkaesque Koffka","3.2.5","0","s","NA","s","s","NA","s","763","NA","56277","43403","NA","763","2","legacy","1024","2","48000","-16","experiment","SSSSS","2","even","58705","251636","NA","207207","251830","NA","2406","NA","NA","251721","2417","208230","NA","251830","252595","251714","Flanker Task-AHC","81","53352","81","yes","1024"
"100","100","658.134146341","658.134146341","black","legacy","legacy","legacy","0","incongruent","uniform","1","undefined","1","h","0","0","0","81","81","81","0","81","0","81","0","0","0","81","81","81","Fri Sep  7 15:08:46 2018","600","The main experiment item","yes","FlankerTaskAHC.osexp","/Users/abigailchristie/Desktop/Faulkenberry","no","mono","no","18","no","white","no","yes","768","legacy","1","79","/Users/abigailchristie/Desktop/Faulkenberry/AHC02.csv","legacy","Kafkaesque Koffka","3.2.5","0","h","NA","s","s","NA","h","615","NA","56277","43403","NA","615","2","legacy","1024","2","48000","-16","experiment","SSHSS","2","even","58705","251636","NA","253115","254322","NA","2406","252607","NA","254212","2417","208230","NA","254322","254940","254205","Flanker Task-AHC","82","53967","82","yes","1024"
"100","100","656.469879518","656.469879518","black","legacy","legacy","legacy","0","incongruent","uniform","1","undefined","1","h","0","0","0","82","82","82","0","82","0","82","0","0","0","82","82","82","Fri Sep  7 15:08:46 2018","600","The main experiment item","yes","FlankerTaskAHC.osexp","/Users/abigailchristie/Desktop/Faulkenberry","no","mono","no","18","no","white","no","yes","768","legacy","2","79","/Users/abigailchristie/Desktop/Faulkenberry/AHC02.csv","legacy","Kafkaesque Koffka","3.2.5","0","h","NA","s","s","NA","h","520","NA","56277","43403","NA","520","2","legacy","1024","2","48000","-16","experiment","SSHSS","2","even","58705","251636","NA","255460","256656","NA","2406","254952","NA","256548","2417","208230","NA","256656","257178","256541","Flanker Task-AHC","83","54487","83","yes","1024"
"100","100","654.19047619","654.19047619","black","legacy","legacy","legacy","0","congruent","uniform","1","undefined","1","s","0","0","0","83","83","83","0","83","0","83","0","0","0","83","83","83","Fri Sep  7 15:08:46 2018","600","The main experiment item","yes","FlankerTaskAHC.osexp","/Users/abigailchristie/Desktop/Faulkenberry","no","mono","no","18","no","white","no","yes","768","legacy","3","79","/Users/abigailchristie/Desktop/Faulkenberry/AHC02.csv","legacy","Kafkaesque Koffka","3.2.5","0","s","NA","s","s","NA","s","465","NA","56277","43403","NA","465","2","legacy","1024","2","48000","-16","experiment","SSSSS","2","even","58705","251636","NA","257190","258384","NA","2406","254952","NA","258277","2417","208230","NA","258384","258851","258269","Flanker Task-AHC","84","54952","84","yes","1024"
"100","100","651.588235294","651.588235294","black","legacy","legacy","legacy","0","congruent","uniform","1","undefined","1","s","0","0","0","84","84","84","0","84","0","84","0","0","0","84","84","84","Fri Sep  7 15:08:46 2018","600","The main experiment item","yes","FlankerTaskAHC.osexp","/Users/abigailchristie/Desktop/Faulkenberry","no","mono","no","18","no","white","no","yes","768","legacy","4","79","/Users/abigailchristie/Desktop/Faulkenberry/AHC02.csv","legacy","Kafkaesque Koffka","3.2.5","0","s","NA","s","s","NA","s","433","NA","56277","43403","NA","433","2","legacy","1024","2","48000","-16","experiment","SSSSS","2","even","58705","251636","NA","258860","260056","NA","2406","254952","NA","259948","2417","208230","NA","260056","260491","259940","Flanker Task-AHC","85","55385","85","yes","1024"
"100","100","649.639534884","649.639534884","black","legacy","legacy","legacy","0","congruent","uniform","1","undefined","1","h","0","0","0","85","85","85","0","85","0","85","0","0","0","85","85","85","Fri Sep  7 15:08:46 2018","600","The main experiment item","yes","FlankerTaskAHC.osexp","/Users/abigailchristie/Desktop/Faulkenberry","no","mono","no","18","no","white","no","yes","768","legacy","5","79","/Users/abigailchristie/Desktop/Faulkenberry/AHC02.csv","legacy","Kafkaesque Koffka","3.2.5","0","h","NA","s","s","NA","h","484","NA","56277","43403","NA","484","2","legacy","1024","2","48000","-16","experiment","HHHHH","2","even","58705","251636","NA","260502","261700","NA","2406","254952","NA","261591","2417","208230","NA","261700","262187","261583","Flanker Task-AHC","86","55869","86","yes","1024"
"100","100","647.022988506","647.022988506","black","legacy","legacy","legacy","0","incongruent","uniform","1","undefined","1","h","0","0","0","86","86","86","0","86","0","86","0","0","0","86","86","86","Fri Sep  7 15:08:46 2018","600","The main experiment item","yes","FlankerTaskAHC.osexp","/Users/abigailchristie/Desktop/Faulkenberry","no","mono","no","18","no","white","no","yes","768","legacy","6","79","/Users/abigailchristie/Desktop/Faulkenberry/AHC02.csv","legacy","Kafkaesque Koffka","3.2.5","0","h","NA","s","s","NA","h","422","NA","56277","43403","NA","422","2","legacy","1024","2","48000","-16","experiment","SSHSS","2","even","58705","251636","NA","262199","263395","NA","2406","254952","NA","263286","2417","208230","NA","263395","263819","263279","Flanker Task-AHC","87","56291","87","yes","1024"
"100","100","645.863636364","645.863636364","black","legacy","legacy","legacy","0","incongruent","uniform","1","undefined","1","s","0","0","0","87","87","87","0","87","0","87","0","0","0","87","87","87","Fri Sep  7 15:08:46 2018","600","The main experiment item","yes","FlankerTaskAHC.osexp","/Users/abigailchristie/Desktop/Faulkenberry","no","mono","no","18","no","white","no","yes","768","legacy","7","79","/Users/abigailchristie/Desktop/Faulkenberry/AHC02.csv","legacy","Kafkaesque Koffka","3.2.5","0","s","NA","s","s","NA","s","545","NA","56277","43403","NA","545","2","legacy","1024","2","48000","-16","experiment","HHSHH","2","even","58705","251636","NA","263832","265032","NA","2406","254952","NA","264923","2417","208230","NA","265032","265579","264916","Flanker Task-AHC","88","56836","88","yes","1024"
"100","100","643.719101124","643.719101124","black","legacy","legacy","legacy","0","incongruent","uniform","1","undefined","1","h","0","0","0","88","88","88","0","88","0","88","0","0","0","88","88","88","Fri Sep  7 15:08:46 2018","600","The main experiment item","yes","FlankerTaskAHC.osexp","/Users/abigailchristie/Desktop/Faulkenberry","no","mono","no","18","no","white","no","yes","768","legacy","8","79","/Users/abigailchristie/Desktop/Faulkenberry/AHC02.csv","legacy","Kafkaesque Koffka","3.2.5","0","h","NA","s","s","NA","h","455","NA","56277","43403","NA","455","2","legacy","1024","2","48000","-16","experiment","SSHSS","2","even","58705","251636","NA","265593","266793","NA","2406","254952","NA","266684","2417","208230","NA","266793","267250","266676","Flanker Task-AHC","89","57291","89","yes","1024"
"100","100","642.133333333","642.133333333","black","legacy","legacy","legacy","0","incongruent","uniform","1","undefined","1","s","0","0","0","89","89","89","0","89","0","89","0","0","0","89","89","89","Fri Sep  7 15:08:46 2018","600","The main experiment item","yes","FlankerTaskAHC.osexp","/Users/abigailchristie/Desktop/Faulkenberry","no","mono","no","18","no","white","no","yes","768","legacy","9","79","/Users/abigailchristie/Desktop/Faulkenberry/AHC02.csv","legacy","Kafkaesque Koffka","3.2.5","0","s","NA","s","s","NA","s","501","NA","56277","43403","NA","501","2","legacy","1024","2","48000","-16","experiment","HHSHH","2","even","58705","251636","NA","267261","268459","NA","2406","254952","NA","268351","2417","208230","NA","268459","268963","268344","Flanker Task-AHC","90","57792","90","yes","1024"
"100","100","640.868131868","640.868131868","black","legacy","legacy","legacy","0","incongruent","uniform","1","undefined","1","s","0","0","0","90","90","90","0","90","0","90","0","0","0","90","90","90","Fri Sep  7 15:08:46 2018","600","The main experiment item","yes","FlankerTaskAHC.osexp","/Users/abigailchristie/Desktop/Faulkenberry","no","mono","no","18","no","white","no","yes","768","legacy","10","79","/Users/abigailchristie/Desktop/Faulkenberry/AHC02.csv","legacy","Kafkaesque Koffka","3.2.5","0","s","NA","s","s","NA","s","527","NA","56277","43403","NA","527","2","legacy","1024","2","48000","-16","experiment","HHSHH","2","even","58705","251636","NA","268975","270169","NA","2406","254952","NA","270062","2417","208230","NA","270169","270699","270054","Flanker Task-AHC","91","58319","91","yes","1024"
"100","100","640.282608696","640.282608696","black","legacy","legacy","legacy","0","incongruent","uniform","1","undefined","1","s","0","0","0","91","91","91","0","91","0","91","0","0","0","91","91","91","Fri Sep  7 15:08:46 2018","600","The main experiment item","yes","FlankerTaskAHC.osexp","/Users/abigailchristie/Desktop/Faulkenberry","no","mono","no","18","no","white","no","yes","768","legacy","11","79","/Users/abigailchristie/Desktop/Faulkenberry/AHC02.csv","legacy","Kafkaesque Koffka","3.2.5","0","s","NA","s","s","NA","s","587","NA","56277","43403","NA","587","2","legacy","1024","2","48000","-16","experiment","HHSHH","2","even","58705","251636","NA","270709","271909","NA","2406","254952","NA","271800","2417","208230","NA","271909","272499","271792","Flanker Task-AHC","92","58906","92","yes","1024"
"100","100","638.537634409","638.537634409","black","legacy","legacy","legacy","0","congruent","uniform","1","undefined","1","h","0","0","0","92","92","92","0","92","0","92","0","0","0","92","92","92","Fri Sep  7 15:08:46 2018","600","The main experiment item","yes","FlankerTaskAHC.osexp","/Users/abigailchristie/Desktop/Faulkenberry","no","mono","no","18","no","white","no","yes","768","legacy","12","79","/Users/abigailchristie/Desktop/Faulkenberry/AHC02.csv","legacy","Kafkaesque Koffka","3.2.5","0","h","NA","s","s","NA","h","478","NA","56277","43403","NA","478","2","legacy","1024","2","48000","-16","experiment","HHHHH","2","even","58705","251636","NA","272509","273704","NA","2406","254952","NA","273597","2417","208230","NA","273705","274186","273590","Flanker Task-AHC","93","59384","93","yes","1024"
"100","100","636.425531915","636.425531915","black","legacy","legacy","legacy","0","congruent","uniform","1","undefined","1","h","0","0","0","93","93","93","0","93","0","93","0","0","0","93","93","93","Fri Sep  7 15:08:46 2018","600","The main experiment item","yes","FlankerTaskAHC.osexp","/Users/abigailchristie/Desktop/Faulkenberry","no","mono","no","18","no","white","no","yes","768","legacy","13","79","/Users/abigailchristie/Desktop/Faulkenberry/AHC02.csv","legacy","Kafkaesque Koffka","3.2.5","0","h","NA","s","s","NA","h","440","NA","56277","43403","NA","440","2","legacy","1024","2","48000","-16","experiment","HHHHH","2","even","58705","251636","NA","274199","275400","NA","2406","254952","NA","275291","2417","208230","NA","275400","275843","275283","Flanker Task-AHC","94","59824","94","yes","1024"
"100","100","637.210526316","637.210526316","black","legacy","legacy","legacy","0","incongruent","uniform","1","undefined","1","s","0","0","0","94","94","94","0","94","0","94","0","0","0","94","94","94","Fri Sep  7 15:08:46 2018","600","The main experiment item","yes","FlankerTaskAHC.osexp","/Users/abigailchristie/Desktop/Faulkenberry","no","mono","no","18","no","white","no","yes","768","legacy","14","79","/Users/abigailchristie/Desktop/Faulkenberry/AHC02.csv","legacy","Kafkaesque Koffka","3.2.5","0","s","NA","s","s","NA","s","711","NA","56277","43403","NA","711","2","legacy","1024","2","48000","-16","experiment","HHSHH","2","even","58705","251636","NA","275852","277049","NA","2406","254952","NA","276940","2417","208230","NA","277049","277763","276932","Flanker Task-AHC","95","60535","95","yes","1024"
"100","100","635.90625","635.90625","black","legacy","legacy","legacy","0","congruent","uniform","1","undefined","1","h","0","0","0","95","95","95","0","95","0","95","0","0","0","95","95","95","Fri Sep  7 15:08:46 2018","600","The main experiment item","yes","FlankerTaskAHC.osexp","/Users/abigailchristie/Desktop/Faulkenberry","no","mono","no","18","no","white","no","yes","768","legacy","15","79","/Users/abigailchristie/Desktop/Faulkenberry/AHC02.csv","legacy","Kafkaesque Koffka","3.2.5","0","h","NA","s","s","NA","h","512","NA","56277","43403","NA","512","2","legacy","1024","2","48000","-16","experiment","HHHHH","2","even","58705","251636","NA","278283","279480","NA","2406","277776","NA","279371","2417","208230","NA","279480","279995","279364","Flanker Task-AHC","96","61047","96","yes","1024"
"100","100","635.319587629","635.319587629","black","legacy","legacy","legacy","0","incongruent","uniform","1","undefined","1","s","0","0","0","96","96","96","0","96","0","96","0","0","0","96","96","96","Fri Sep  7 15:08:46 2018","600","The main experiment item","yes","FlankerTaskAHC.osexp","/Users/abigailchristie/Desktop/Faulkenberry","no","mono","no","18","no","white","no","yes","768","legacy","16","79","/Users/abigailchristie/Desktop/Faulkenberry/AHC02.csv","legacy","Kafkaesque Koffka","3.2.5","0","s","NA","s","s","NA","s","579","NA","56277","43403","NA","579","2","legacy","1024","2","48000","-16","experiment","HHSHH","2","even","58705","251636","NA","280005","281205","NA","2406","277776","NA","281096","2417","208230","NA","281205","281786","281087","Flanker Task-AHC","97","61626","97","yes","1024"
"100","100","633.306122449","633.306122449","black","legacy","legacy","legacy","0","congruent","uniform","1","undefined","1","h","0","0","0","97","97","97","0","97","0","97","0","0","0","97","97","97","Fri Sep  7 15:08:46 2018","600","The main experiment item","yes","FlankerTaskAHC.osexp","/Users/abigailchristie/Desktop/Faulkenberry","no","mono","no","18","no","white","no","yes","768","legacy","17","79","/Users/abigailchristie/Desktop/Faulkenberry/AHC02.csv","legacy","Kafkaesque Koffka","3.2.5","0","h","NA","s","s","NA","h","438","NA","56277","43403","NA","438","2","legacy","1024","2","48000","-16","experiment","HHHHH","2","even","58705","251636","NA","281797","282993","NA","2406","277776","NA","282884","2417","208230","NA","282993","283434","282877","Flanker Task-AHC","98","62064","98","yes","1024"
"100","100","631.131313131","631.131313131","black","legacy","legacy","legacy","0","congruent","uniform","1","undefined","1","s","0","0","0","98","98","98","0","98","0","98","0","0","0","98","98","98","Fri Sep  7 15:08:46 2018","600","The main experiment item","yes","FlankerTaskAHC.osexp","/Users/abigailchristie/Desktop/Faulkenberry","no","mono","no","18","no","white","no","yes","768","legacy","18","79","/Users/abigailchristie/Desktop/Faulkenberry/AHC02.csv","legacy","Kafkaesque Koffka","3.2.5","0","s","NA","s","s","NA","s","418","NA","56277","43403","NA","418","2","legacy","1024","2","48000","-16","experiment","SSSSS","2","even","58705","251636","NA","283448","284645","NA","2406","277776","NA","284536","2417","208230","NA","284645","285065","284529","Flanker Task-AHC","99","62482","99","yes","1024"
"100","100","630.07","630.07","black","legacy","legacy","legacy","0","incongruent","uniform","1","undefined","1","s","0","0","0","99","99","99","0","99","0","99","0","0","0","99","99","99","Fri Sep  7 15:08:46 2018","600","The main experiment item","yes","FlankerTaskAHC.osexp","/Users/abigailchristie/Desktop/Faulkenberry","no","mono","no","18","no","white","no","yes","768","legacy","19","79","/Users/abigailchristie/Desktop/Faulkenberry/AHC02.csv","legacy","Kafkaesque Koffka","3.2.5","0","s","NA","s","s","NA","s","525","NA","56277","43403","NA","525","2","legacy","1024","2","48000","-16","experiment","HHSHH","2","even","58705","251636","NA","285078","286275","NA","2406","277776","NA","286166","2417","208230","NA","286275","286802","286158","Flanker Task-AHC","100","63007","100","yes","1024"
"100","100","628.158415842","628.158415842","black","legacy","legacy","legacy","0","congruent","uniform","1","undefined","1","s","0","0","0","100","100","100","0","100","0","100","0","0","0","100","100","100","Fri Sep  7 15:08:46 2018","600","The main experiment item","yes","FlankerTaskAHC.osexp","/Users/abigailchristie/Desktop/Faulkenberry","no","mono","no","18","no","white","no","yes","768","legacy","20","79","/Users/abigailchristie/Desktop/Faulkenberry/AHC02.csv","legacy","Kafkaesque Koffka","3.2.5","0","s","NA","s","s","NA","s","437","NA","56277","43403","NA","437","2","legacy","1024","2","48000","-16","experiment","SSSSS","2","even","58705","251636","NA","286816","288011","NA","2406","277776","NA","287902","2417","208230","NA","288011","288451","287894","Flanker Task-AHC","101","63444","101","yes","1024"
"100","100","625.578431373","625.578431373","black","legacy","legacy","legacy","0","congruent","uniform","1","undefined","1","h","0","0","0","101","101","101","0","101","0","101","0","0","0","101","101","101","Fri Sep  7 15:08:46 2018","600","The main experiment item","yes","FlankerTaskAHC.osexp","/Users/abigailchristie/Desktop/Faulkenberry","no","mono","no","18","no","white","no","yes","768","legacy","21","79","/Users/abigailchristie/Desktop/Faulkenberry/AHC02.csv","legacy","Kafkaesque Koffka","3.2.5","0","h","NA","s","s","NA","h","365","NA","56277","43403","NA","365","2","legacy","1024","2","48000","-16","experiment","HHHHH","2","even","58705","251636","NA","288462","289658","NA","2406","277776","NA","289549","2417","208230","NA","289658","290025","289542","Flanker Task-AHC","102","63809","102","yes","1024"
"100","100","623.165048544","623.165048544","black","legacy","legacy","legacy","0","congruent","uniform","1","undefined","1","s","0","0","0","102","102","102","0","102","0","102","0","0","0","102","102","102","Fri Sep  7 15:08:46 2018","600","The main experiment item","yes","FlankerTaskAHC.osexp","/Users/abigailchristie/Desktop/Faulkenberry","no","mono","no","18","no","white","no","yes","768","legacy","22","79","/Users/abigailchristie/Desktop/Faulkenberry/AHC02.csv","legacy","Kafkaesque Koffka","3.2.5","0","s","NA","s","s","NA","s","377","NA","56277","43403","NA","377","2","legacy","1024","2","48000","-16","experiment","SSSSS","2","even","58705","251636","NA","290034","291231","NA","2406","277776","NA","291121","2417","208230","NA","291231","291610","291113","Flanker Task-AHC","103","64186","103","yes","1024"
"100","100","622.201923077","622.201923077","black","legacy","legacy","legacy","0","incongruent","uniform","1","undefined","1","s","0","0","0","103","103","103","0","103","0","103","0","0","0","103","103","103","Fri Sep  7 15:08:46 2018","600","The main experiment item","yes","FlankerTaskAHC.osexp","/Users/abigailchristie/Desktop/Faulkenberry","no","mono","no","18","no","white","no","yes","768","legacy","23","79","/Users/abigailchristie/Desktop/Faulkenberry/AHC02.csv","legacy","Kafkaesque Koffka","3.2.5","0","s","NA","s","s","NA","s","523","NA","56277","43403","NA","523","2","legacy","1024","2","48000","-16","experiment","HHSHH","2","even","58705","251636","NA","291624","292820","NA","2406","277776","NA","292711","2417","208230","NA","292820","293346","292704","Flanker Task-AHC","104","64709","104","yes","1024"
"100","100","620.028571429","620.028571429","black","legacy","legacy","legacy","0","congruent","uniform","1","undefined","1","s","0","0","0","104","104","104","0","104","0","104","0","0","0","104","104","104","Fri Sep  7 15:08:46 2018","600","The main experiment item","yes","FlankerTaskAHC.osexp","/Users/abigailchristie/Desktop/Faulkenberry","no","mono","no","18","no","white","no","yes","768","legacy","24","79","/Users/abigailchristie/Desktop/Faulkenberry/AHC02.csv","legacy","Kafkaesque Koffka","3.2.5","0","s","NA","s","s","NA","s","394","NA","56277","43403","NA","394","2","legacy","1024","2","48000","-16","experiment","SSSSS","2","even","58705","251636","NA","293357","294557","NA","2406","277776","NA","294449","2417","208230","NA","294558","294954","294442","Flanker Task-AHC","105","65103","105","yes","1024"
"100","100","617.990566038","617.990566038","black","legacy","legacy","legacy","0","congruent","uniform","1","undefined","1","h","0","0","0","105","105","105","0","105","0","105","0","0","0","105","105","105","Fri Sep  7 15:08:46 2018","600","The main experiment item","yes","FlankerTaskAHC.osexp","/Users/abigailchristie/Desktop/Faulkenberry","no","mono","no","18","no","white","no","yes","768","legacy","25","79","/Users/abigailchristie/Desktop/Faulkenberry/AHC02.csv","legacy","Kafkaesque Koffka","3.2.5","0","h","NA","s","s","NA","h","404","NA","56277","43403","NA","404","2","legacy","1024","2","48000","-16","experiment","HHHHH","2","even","58705","251636","NA","294967","296163","NA","2406","277776","NA","296054","2417","208230","NA","296163","296570","296046","Flanker Task-AHC","106","65507","106","yes","1024"
"100","100","615.757009346","615.757009346","black","legacy","legacy","legacy","0","congruent","uniform","1","undefined","1","s","0","0","0","106","106","106","0","106","0","106","0","0","0","106","106","106","Fri Sep  7 15:08:46 2018","600","The main experiment item","yes","FlankerTaskAHC.osexp","/Users/abigailchristie/Desktop/Faulkenberry","no","mono","no","18","no","white","no","yes","768","legacy","26","79","/Users/abigailchristie/Desktop/Faulkenberry/AHC02.csv","legacy","Kafkaesque Koffka","3.2.5","0","s","NA","s","s","NA","s","379","NA","56277","43403","NA","379","2","legacy","1024","2","48000","-16","experiment","SSSSS","2","even","58705","251636","NA","296583","297779","NA","2406","277776","NA","297670","2417","208230","NA","297779","298161","297663","Flanker Task-AHC","107","65886","107","yes","1024"
"100","100","614.037037037","614.037037037","black","legacy","legacy","legacy","0","incongruent","uniform","1","undefined","1","h","0","0","0","107","107","107","0","107","0","107","0","0","0","107","107","107","Fri Sep  7 15:08:46 2018","600","The main experiment item","yes","FlankerTaskAHC.osexp","/Users/abigailchristie/Desktop/Faulkenberry","no","mono","no","18","no","white","no","yes","768","legacy","27","79","/Users/abigailchristie/Desktop/Faulkenberry/AHC02.csv","legacy","Kafkaesque Koffka","3.2.5","0","h","NA","s","s","NA","h","430","NA","56277","43403","NA","430","2","legacy","1024","2","48000","-16","experiment","SSHSS","2","even","58705","251636","NA","298171","299369","NA","2406","277776","NA","299260","2417","208230","NA","299369","299803","299253","Flanker Task-AHC","108","66316","108","yes","1024"
"100","100","613.587155963","613.587155963","black","legacy","legacy","legacy","0","congruent","uniform","1","undefined","1","s","0","0","0","108","108","108","0","108","0","108","0","0","0","108","108","108","Fri Sep  7 15:08:46 2018","600","The main experiment item","yes","FlankerTaskAHC.osexp","/Users/abigailchristie/Desktop/Faulkenberry","no","mono","no","18","no","white","no","yes","768","legacy","28","79","/Users/abigailchristie/Desktop/Faulkenberry/AHC02.csv","legacy","Kafkaesque Koffka","3.2.5","0","s","NA","s","s","NA","s","565","NA","56277","43403","NA","565","2","legacy","1024","2","48000","-16","experiment","SSSSS","2","even","58705","251636","NA","299814","301010","NA","2406","277776","NA","300901","2417","208230","NA","301010","301578","300894","Flanker Task-AHC","109","66881","109","yes","1024"
"100","100","611.809090909","611.809090909","black","legacy","legacy","legacy","0","congruent","uniform","1","undefined","1","h","0","0","0","109","109","109","0","109","0","109","0","0","0","109","109","109","Fri Sep  7 15:08:46 2018","600","The main experiment item","yes","FlankerTaskAHC.osexp","/Users/abigailchristie/Desktop/Faulkenberry","no","mono","no","18","no","white","no","yes","768","legacy","29","79","/Users/abigailchristie/Desktop/Faulkenberry/AHC02.csv","legacy","Kafkaesque Koffka","3.2.5","0","h","NA","s","s","NA","h","418","NA","56277","43403","NA","418","2","legacy","1024","2","48000","-16","experiment","HHHHH","2","even","58705","251636","NA","301591","302788","NA","2406","277776","NA","302679","2417","208230","NA","302788","303209","302671","Flanker Task-AHC","110","67299","110","yes","1024"
"100","100","610.828828829","610.828828829","black","legacy","legacy","legacy","0","incongruent","uniform","1","undefined","1","h","0","0","0","110","110","110","0","110","0","110","0","0","0","110","110","110","Fri Sep  7 15:08:46 2018","600","The main experiment item","yes","FlankerTaskAHC.osexp","/Users/abigailchristie/Desktop/Faulkenberry","no","mono","no","18","no","white","no","yes","768","legacy","30","79","/Users/abigailchristie/Desktop/Faulkenberry/AHC02.csv","legacy","Kafkaesque Koffka","3.2.5","0","h","NA","s","s","NA","h","503","NA","56277","43403","NA","503","2","legacy","1024","2","48000","-16","experiment","SSHSS","2","even","58705","251636","NA","303220","304416","NA","2406","277776","NA","304307","2417","208230","NA","304416","304922","304300","Flanker Task-AHC","111","67802","111","yes","1024"
"100","100","609.223214286","609.223214286","black","legacy","legacy","legacy","0","congruent","uniform","1","undefined","1","h","0","0","0","111","111","111","0","111","0","111","0","0","0","111","111","111","Fri Sep  7 15:08:46 2018","600","The main experiment item","yes","FlankerTaskAHC.osexp","/Users/abigailchristie/Desktop/Faulkenberry","no","mono","no","18","no","white","no","yes","768","legacy","31","79","/Users/abigailchristie/Desktop/Faulkenberry/AHC02.csv","legacy","Kafkaesque Koffka","3.2.5","0","h","NA","s","s","NA","h","431","NA","56277","43403","NA","431","2","legacy","1024","2","48000","-16","experiment","HHHHH","2","even","58705","251636","NA","304933","306128","NA","2406","277776","NA","306019","2417","208230","NA","306128","306562","306012","Flanker Task-AHC","112","68233","112","yes","1024"
"100","100","607.752212389","607.752212389","black","legacy","legacy","legacy","0","incongruent","uniform","1","undefined","1","s","0","0","0","112","112","112","0","112","0","112","0","0","0","112","112","112","Fri Sep  7 15:08:46 2018","600","The main experiment item","yes","FlankerTaskAHC.osexp","/Users/abigailchristie/Desktop/Faulkenberry","no","mono","no","18","no","white","no","yes","768","legacy","32","79","/Users/abigailchristie/Desktop/Faulkenberry/AHC02.csv","legacy","Kafkaesque Koffka","3.2.5","0","s","NA","s","s","NA","s","443","NA","56277","43403","NA","443","2","legacy","1024","2","48000","-16","experiment","HHSHH","2","even","58705","251636","NA","306575","307771","NA","2406","277776","NA","307663","2417","208230","NA","307771","308216","307655","Flanker Task-AHC","113","68676","113","yes","1024"
"100","100","606.561403509","606.561403509","black","legacy","legacy","legacy","0","congruent","uniform","1","undefined","1","s","0","0","0","113","113","113","0","113","0","113","0","0","0","113","113","113","Fri Sep  7 15:08:46 2018","600","The main experiment item","yes","FlankerTaskAHC.osexp","/Users/abigailchristie/Desktop/Faulkenberry","no","mono","no","18","no","white","no","yes","768","legacy","33","79","/Users/abigailchristie/Desktop/Faulkenberry/AHC02.csv","legacy","Kafkaesque Koffka","3.2.5","0","s","NA","s","s","NA","s","472","NA","56277","43403","NA","472","2","legacy","1024","2","48000","-16","experiment","SSSSS","2","even","58705","251636","NA","308226","309423","NA","2406","277776","NA","309314","2417","208230","NA","309423","309898","309307","Flanker Task-AHC","114","69148","114","yes","1024"
"100","100","604.660869565","604.660869565","black","legacy","legacy","legacy","0","incongruent","uniform","1","undefined","1","h","0","0","0","114","114","114","0","114","0","114","0","0","0","114","114","114","Fri Sep  7 15:08:46 2018","600","The main experiment item","yes","FlankerTaskAHC.osexp","/Users/abigailchristie/Desktop/Faulkenberry","no","mono","no","18","no","white","no","yes","768","legacy","34","79","/Users/abigailchristie/Desktop/Faulkenberry/AHC02.csv","legacy","Kafkaesque Koffka","3.2.5","0","h","NA","s","s","NA","h","388","NA","56277","43403","NA","388","2","legacy","1024","2","48000","-16","experiment","SSHSS","2","even","58705","251636","NA","309911","311107","NA","2406","277776","NA","310999","2417","208230","NA","311107","311498","310992","Flanker Task-AHC","115","69536","115","yes","1024"
"100","100","603.034482759","603.034482759","black","legacy","legacy","legacy","0","incongruent","uniform","1","undefined","1","h","0","0","0","115","115","115","0","115","0","115","0","0","0","115","115","115","Fri Sep  7 15:08:46 2018","600","The main experiment item","yes","FlankerTaskAHC.osexp","/Users/abigailchristie/Desktop/Faulkenberry","no","mono","no","18","no","white","no","yes","768","legacy","35","79","/Users/abigailchristie/Desktop/Faulkenberry/AHC02.csv","legacy","Kafkaesque Koffka","3.2.5","0","h","NA","s","s","NA","h","416","NA","56277","43403","NA","416","2","legacy","1024","2","48000","-16","experiment","SSHSS","2","even","58705","251636","NA","311507","312702","NA","2406","277776","NA","312594","2417","208230","NA","312702","313120","312587","Flanker Task-AHC","116","69952","116","yes","1024"
"100","100","601.41025641","601.41025641","black","legacy","legacy","legacy","0","congruent","uniform","1","undefined","1","h","0","0","0","116","116","116","0","116","0","116","0","0","0","116","116","116","Fri Sep  7 15:08:46 2018","600","The main experiment item","yes","FlankerTaskAHC.osexp","/Users/abigailchristie/Desktop/Faulkenberry","no","mono","no","18","no","white","no","yes","768","legacy","36","79","/Users/abigailchristie/Desktop/Faulkenberry/AHC02.csv","legacy","Kafkaesque Koffka","3.2.5","0","h","NA","s","s","NA","h","413","NA","56277","43403","NA","413","2","legacy","1024","2","48000","-16","experiment","HHHHH","2","even","58705","251636","NA","313134","314330","NA","2406","277776","NA","314220","2417","208230","NA","314330","314746","314213","Flanker Task-AHC","117","70365","117","yes","1024"
"100","100","600.042372881","600.042372881","black","legacy","legacy","legacy","0","congruent","uniform","1","undefined","1","h","0","0","0","117","117","117","0","117","0","117","0","0","0","117","117","117","Fri Sep  7 15:08:46 2018","600","The main experiment item","yes","FlankerTaskAHC.osexp","/Users/abigailchristie/Desktop/Faulkenberry","no","mono","no","18","no","white","no","yes","768","legacy","37","79","/Users/abigailchristie/Desktop/Faulkenberry/AHC02.csv","legacy","Kafkaesque Koffka","3.2.5","0","h","NA","s","s","NA","h","440","NA","56277","43403","NA","440","2","legacy","1024","2","48000","-16","experiment","HHHHH","2","even","58705","251636","NA","314760","315958","NA","2406","277776","NA","315850","2417","208230","NA","315958","316400","315842","Flanker Task-AHC","118","70805","118","yes","1024"
"100","100","599.453781513","599.453781513","black","legacy","legacy","legacy","0","incongruent","uniform","1","undefined","1","h","0","0","0","118","118","118","0","118","0","118","0","0","0","118","118","118","Fri Sep  7 15:08:46 2018","600","The main experiment item","yes","FlankerTaskAHC.osexp","/Users/abigailchristie/Desktop/Faulkenberry","no","mono","no","18","no","white","no","yes","768","legacy","38","79","/Users/abigailchristie/Desktop/Faulkenberry/AHC02.csv","legacy","Kafkaesque Koffka","3.2.5","0","h","NA","s","s","NA","h","530","NA","56277","43403","NA","530","2","legacy","1024","2","48000","-16","experiment","SSHSS","2","even","58705","251636","NA","316414","317612","NA","2406","277776","NA","317503","2417","208230","NA","317612","318145","317496","Flanker Task-AHC","119","71335","119","yes","1024"
"100","100","597.7","597.7","black","legacy","legacy","legacy","0","congruent","uniform","1","undefined","1","s","0","0","0","119","119","119","0","119","0","119","0","0","0","119","119","119","Fri Sep  7 15:08:46 2018","600","The main experiment item","yes","FlankerTaskAHC.osexp","/Users/abigailchristie/Desktop/Faulkenberry","no","mono","no","18","no","white","no","yes","768","legacy","39","79","/Users/abigailchristie/Desktop/Faulkenberry/AHC02.csv","legacy","Kafkaesque Koffka","3.2.5","0","s","NA","s","s","NA","s","389","NA","56277","43403","NA","389","2","legacy","1024","2","48000","-16","experiment","SSSSS","2","even","58705","251636","NA","318156","319353","NA","2406","277776","NA","319244","2417","208230","NA","319353","319746","319237","Flanker Task-AHC","120","71724","120","yes","1024"
"100","100","596.272727273","596.272727273","black","legacy","legacy","legacy","0","incongruent","uniform","1","undefined","1","h","0","0","0","120","120","120","0","120","0","120","0","0","0","120","120","120","Fri Sep  7 15:08:46 2018","600","The main experiment item","yes","FlankerTaskAHC.osexp","/Users/abigailchristie/Desktop/Faulkenberry","no","mono","no","18","no","white","no","yes","768","legacy","40","79","/Users/abigailchristie/Desktop/Faulkenberry/AHC02.csv","legacy","Kafkaesque Koffka","3.2.5","0","h","NA","s","s","NA","h","425","NA","56277","43403","NA","425","2","legacy","1024","2","48000","-16","experiment","SSHSS","2","even","58705","251636","NA","319759","320956","NA","2406","277776","NA","320847","2417","208230","NA","320956","321384","320839","Flanker Task-AHC","121","72149","121","yes","1024"
"99.1803278689","99.1803278689","594.418032787","594.418032787","black","legacy","legacy","legacy","0","congruent","uniform","0","undefined","0","s","0","0","0","121","121","121","0","121","0","121","0","0","0","121","121","121","Fri Sep  7 15:08:46 2018","600","The main experiment item","yes","FlankerTaskAHC.osexp","/Users/abigailchristie/Desktop/Faulkenberry","no","mono","no","18","no","white","no","yes","768","legacy","41","79","/Users/abigailchristie/Desktop/Faulkenberry/AHC02.csv","legacy","Kafkaesque Koffka","3.2.5","0","h","NA","s","s","NA","h","370","NA","56277","43403","NA","370","2","legacy","1024","2","48000","-16","experiment","SSSSS","2","even","58705","251636","NA","321397","322596","NA","2406","277776","NA","322487","2417","208230","NA","322596","322969","322480","Flanker Task-AHC","121","72519","122","yes","1024"
