"acc","accuracy","average_response_time","avg_rt","background","canvas_backend","clock_backend","color_backend","compensation","condition","coordinates","correct","correct_Instructions1","correct_Keyboard_Response","correct_response","count_Block1","count_Block2","count_Block3","count_Error_Feedback","count_Faster","count_Finish","count_Fixation","count_ISI","count_Instructions1","count_Instructions2","count_Insturctions3","count_Keyboard_Response","count_Logger","count_Sequence","count_Stimulus","count_experiment","datetime","deadline","description","disable_garbage_collection","experiment_file","experiment_path","font_bold","font_family","font_italic","font_size","font_underline","foreground","form_clicks","fullscreen","height","keyboard_backend","live_row","live_row_Block1","logfile","mouse_backend","opensesame_codename","opensesame_version","repeat_cycle","response","response_Finish","response_Instructions1","response_Instructions2","response_Insturctions3","response_Keyboard_Response","response_time","response_time_Finish","response_time_Instructions1","response_time_Instructions2","response_time_Insturctions3","response_time_Keyboard_Response","round_decimals","sampler_backend","sound_buf_size","sound_channels","sound_freq","sound_sample_size","start","stimulus","subject_nr","subject_parity","time_Block1","time_Block2","time_Block3","time_Error_Feedback","time_Faster","time_Finish","time_Fixation","time_ISI","time_Instructions1","time_Instructions2","time_Insturctions3","time_Keyboard_Response","time_Logger","time_Sequence","time_Stimulus","time_experiment","title","total_correct","total_response_time","total_responses","uniform_coordinates","width"
"0","0","1500","1500","black","legacy","legacy","legacy","0","Congruent","uniform","0","undefined","0","h","0","0","0","0","0","0","0","0","0","0","0","0","0","0","0","0","Thu Sep  6 14:32:57 2018","1500","The main experiment item","yes","FlankerTask.osexp","/Users/emmaleemorgan/Desktop","no","mono","no","18","no","white","no","yes","768","legacy","0","0","/Users/emmaleemorgan/Desktop/EM subject-2, f, 47.csv","legacy","Kafkaesque Koffka","3.2.5","0","None","NA","h","NA","NA","None","1500","NA","23367","NA","NA","1500","2","legacy","1024","2","48000","-16","experiment","HHHHH","2","even","28500","NA","NA","NA","NA","NA","28576","NA","5122","NA","NA","28687","30187","28566","28687","5100","Flanker Task","0","1500","1","yes","1024"
"0","0","975","975","black","legacy","legacy","legacy","0","Incongruent","uniform","0","undefined","0","s","0","0","0","1","1","0","1","1","0","0","0","1","1","1","1","0","Thu Sep  6 14:32:57 2018","1500","The main experiment item","yes","FlankerTask.osexp","/Users/emmaleemorgan/Desktop","no","mono","no","18","no","white","no","yes","768","legacy","1","1","/Users/emmaleemorgan/Desktop/EM subject-2, f, 47.csv","legacy","Kafkaesque Koffka","3.2.5","0","h","NA","h","NA","NA","h","450","NA","23367","NA","NA","450","2","legacy","1024","2","48000","-16","experiment","HHSHH","2","even","28500","NA","NA","30203","NA","NA","31790","30713","5122","NA","NA","31902","32353","31780","31902","5100","Flanker Task","0","1950","2","yes","1024"
"33.3333333333","33.3333333333","928","928","black","legacy","legacy","legacy","0","Congruent","uniform","1","undefined","1","s","0","0","0","2","2","0","2","2","0","0","0","2","2","2","2","0","Thu Sep  6 14:32:57 2018","1500","The main experiment item","yes","FlankerTask.osexp","/Users/emmaleemorgan/Desktop","no","mono","no","18","no","white","no","yes","768","legacy","2","2","/Users/emmaleemorgan/Desktop/EM subject-2, f, 47.csv","legacy","Kafkaesque Koffka","3.2.5","0","s","NA","h","NA","NA","s","834","NA","23367","NA","NA","834","2","legacy","1024","2","48000","-16","experiment","SSSSS","2","even","28500","NA","NA","32366","NA","NA","33949","32880","5122","NA","NA","34061","34896","33939","34061","5100","Flanker Task","1","2784","3","yes","1024"
"50","50","870.5","870.5","black","legacy","legacy","legacy","0","Incongruent","uniform","1","undefined","1","s","0","0","0","3","3","0","3","3","0","0","0","3","3","3","3","0","Thu Sep  6 14:32:57 2018","1500","The main experiment item","yes","FlankerTask.osexp","/Users/emmaleemorgan/Desktop","no","mono","no","18","no","white","no","yes","768","legacy","3","3","/Users/emmaleemorgan/Desktop/EM subject-2, f, 47.csv","legacy","Kafkaesque Koffka","3.2.5","0","s","NA","h","NA","NA","s","698","NA","23367","NA","NA","698","2","legacy","1024","2","48000","-16","experiment","HHSHH","2","even","28500","NA","NA","32366","NA","NA","35979","34910","5122","NA","NA","36089","36789","35969","36089","5100","Flanker Task","2","3482","4","yes","1024"
"60","60","810.8","810.8","black","legacy","legacy","legacy","0","Incongruent","uniform","1","undefined","1","s","0","0","0","4","4","0","4","4","0","0","0","4","4","4","4","0","Thu Sep  6 14:32:57 2018","1500","The main experiment item","yes","FlankerTask.osexp","/Users/emmaleemorgan/Desktop","no","mono","no","18","no","white","no","yes","768","legacy","4","4","/Users/emmaleemorgan/Desktop/EM subject-2, f, 47.csv","legacy","Kafkaesque Koffka","3.2.5","0","s","NA","h","NA","NA","s","572","NA","23367","NA","NA","572","2","legacy","1024","2","48000","-16","experiment","HHSHH","2","even","28500","NA","NA","32366","NA","NA","37875","36801","5122","NA","NA","37986","38559","37864","37986","5100","Flanker Task","3","4054","5","yes","1024"
"66.6666666667","66.6666666667","761","761","black","legacy","legacy","legacy","0","Congruent","uniform","1","undefined","1","h","0","0","0","5","5","0","5","5","0","0","0","5","5","5","5","0","Thu Sep  6 14:32:57 2018","1500","The main experiment item","yes","FlankerTask.osexp","/Users/emmaleemorgan/Desktop","no","mono","no","18","no","white","no","yes","768","legacy","5","5","/Users/emmaleemorgan/Desktop/EM subject-2, f, 47.csv","legacy","Kafkaesque Koffka","3.2.5","0","h","NA","h","NA","NA","h","512","NA","23367","NA","NA","512","2","legacy","1024","2","48000","-16","experiment","HHHHH","2","even","28500","NA","NA","32366","NA","NA","39645","38574","5122","NA","NA","39757","40270","39635","39757","5100","Flanker Task","4","4566","6","yes","1024"
"71.4285714286","71.4285714286","730.428571429","730.428571429","black","legacy","legacy","legacy","0","Congruent","uniform","1","undefined","1","h","0","0","0","6","6","0","6","6","0","0","0","6","6","6","6","0","Thu Sep  6 14:32:57 2018","1500","The main experiment item","yes","FlankerTask.osexp","/Users/emmaleemorgan/Desktop","no","mono","no","18","no","white","no","yes","768","legacy","6","6","/Users/emmaleemorgan/Desktop/EM subject-2, f, 47.csv","legacy","Kafkaesque Koffka","3.2.5","0","h","NA","h","NA","NA","h","547","NA","23367","NA","NA","547","2","legacy","1024","2","48000","-16","experiment","HHHHH","2","even","28500","NA","NA","32366","NA","NA","41359","40284","5122","NA","NA","41471","42019","41349","41470","5100","Flanker Task","5","5113","7","yes","1024"
"75","75","696.75","696.75","black","legacy","legacy","legacy","0","Congruent","uniform","1","undefined","1","h","0","0","0","7","7","0","7","7","0","0","0","7","7","7","7","0","Thu Sep  6 14:32:57 2018","1500","The main experiment item","yes","FlankerTask.osexp","/Users/emmaleemorgan/Desktop","no","mono","no","18","no","white","no","yes","768","legacy","7","7","/Users/emmaleemorgan/Desktop/EM subject-2, f, 47.csv","legacy","Kafkaesque Koffka","3.2.5","0","h","NA","h","NA","NA","h","461","NA","23367","NA","NA","461","2","legacy","1024","2","48000","-16","experiment","HHHHH","2","even","28500","NA","NA","32366","NA","NA","43105","42032","5122","NA","NA","43218","43680","43094","43218","5100","Flanker Task","6","5574","8","yes","1024"
"77.7777777778","77.7777777778","681.333333333","681.333333333","black","legacy","legacy","legacy","0","Incongruent","uniform","1","undefined","1","s","0","0","0","8","8","0","8","8","0","0","0","8","8","8","8","0","Thu Sep  6 14:32:57 2018","1500","The main experiment item","yes","FlankerTask.osexp","/Users/emmaleemorgan/Desktop","no","mono","no","18","no","white","no","yes","768","legacy","8","8","/Users/emmaleemorgan/Desktop/EM subject-2, f, 47.csv","legacy","Kafkaesque Koffka","3.2.5","0","s","NA","h","NA","NA","s","558","NA","23367","NA","NA","558","2","legacy","1024","2","48000","-16","experiment","HHSHH","2","even","28500","NA","NA","32366","NA","NA","44762","43693","5122","NA","NA","44875","45434","44752","44875","5100","Flanker Task","7","6132","9","yes","1024"
"80","80","670","670","black","legacy","legacy","legacy","0","Congruent","uniform","1","undefined","1","s","0","0","0","9","9","0","9","9","0","0","0","9","9","9","9","0","Thu Sep  6 14:32:57 2018","1500","The main experiment item","yes","FlankerTask.osexp","/Users/emmaleemorgan/Desktop","no","mono","no","18","no","white","no","yes","768","legacy","9","9","/Users/emmaleemorgan/Desktop/EM subject-2, f, 47.csv","legacy","Kafkaesque Koffka","3.2.5","0","s","NA","h","NA","NA","s","568","NA","23367","NA","NA","568","2","legacy","1024","2","48000","-16","experiment","SSSSS","2","even","28500","NA","NA","32366","NA","NA","46516","45447","5122","NA","NA","46629","47198","46505","46629","5100","Flanker Task","8","6700","10","yes","1024"
"81.8181818182","81.8181818182","661.454545455","661.454545455","black","legacy","legacy","legacy","0","Congruent","uniform","1","undefined","1","h","0","0","0","10","10","0","10","10","0","0","0","10","10","10","10","0","Thu Sep  6 14:32:57 2018","1500","The main experiment item","yes","FlankerTask.osexp","/Users/emmaleemorgan/Desktop","no","mono","no","18","no","white","no","yes","768","legacy","10","10","/Users/emmaleemorgan/Desktop/EM subject-2, f, 47.csv","legacy","Kafkaesque Koffka","3.2.5","0","h","NA","h","NA","NA","h","576","NA","23367","NA","NA","576","2","legacy","1024","2","48000","-16","experiment","HHHHH","2","even","28500","NA","NA","32366","NA","NA","48280","47211","5122","NA","NA","48393","48970","48270","48393","5100","Flanker Task","9","7276","11","yes","1024"
"83.3333333333","83.3333333333","653.916666667","653.916666667","black","legacy","legacy","legacy","0","Congruent","uniform","1","undefined","1","s","0","0","0","11","11","0","11","11","0","0","0","11","11","11","11","0","Thu Sep  6 14:32:57 2018","1500","The main experiment item","yes","FlankerTask.osexp","/Users/emmaleemorgan/Desktop","no","mono","no","18","no","white","no","yes","768","legacy","11","11","/Users/emmaleemorgan/Desktop/EM subject-2, f, 47.csv","legacy","Kafkaesque Koffka","3.2.5","0","s","NA","h","NA","NA","s","571","NA","23367","NA","NA","571","2","legacy","1024","2","48000","-16","experiment","SSSSS","2","even","28500","NA","NA","32366","NA","NA","50053","48983","5122","NA","NA","50164","50736","50043","50163","5100","Flanker Task","10","7847","12","yes","1024"
"84.6153846154","84.6153846154","634.538461538","634.538461538","black","legacy","legacy","legacy","0","Congruent","uniform","1","undefined","1","h","0","0","0","12","12","0","12","12","0","0","0","12","12","12","12","0","Thu Sep  6 14:32:57 2018","1500","The main experiment item","yes","FlankerTask.osexp","/Users/emmaleemorgan/Desktop","no","mono","no","18","no","white","no","yes","768","legacy","12","12","/Users/emmaleemorgan/Desktop/EM subject-2, f, 47.csv","legacy","Kafkaesque Koffka","3.2.5","0","h","NA","h","NA","NA","h","402","NA","23367","NA","NA","402","2","legacy","1024","2","48000","-16","experiment","HHHHH","2","even","28500","NA","NA","32366","NA","NA","51823","50750","5122","NA","NA","51935","52338","51813","51935","5100","Flanker Task","11","8249","13","yes","1024"
"85.7142857143","85.7142857143","638.142857143","638.142857143","black","legacy","legacy","legacy","0","Incongruent","uniform","1","undefined","1","h","0","0","0","13","13","0","13","13","0","0","0","13","13","13","13","0","Thu Sep  6 14:32:57 2018","1500","The main experiment item","yes","FlankerTask.osexp","/Users/emmaleemorgan/Desktop","no","mono","no","18","no","white","no","yes","768","legacy","13","13","/Users/emmaleemorgan/Desktop/EM subject-2, f, 47.csv","legacy","Kafkaesque Koffka","3.2.5","0","h","NA","h","NA","NA","h","685","NA","23367","NA","NA","685","2","legacy","1024","2","48000","-16","experiment","SSHSS","2","even","28500","NA","NA","32366","NA","NA","53420","52351","5122","NA","NA","53530","54216","53409","53530","5100","Flanker Task","12","8934","14","yes","1024"
"86.6666666667","86.6666666667","632.733333333","632.733333333","black","legacy","legacy","legacy","0","Incongruent","uniform","1","undefined","1","h","0","0","0","14","14","0","14","14","0","0","0","14","14","14","14","0","Thu Sep  6 14:32:57 2018","1500","The main experiment item","yes","FlankerTask.osexp","/Users/emmaleemorgan/Desktop","no","mono","no","18","no","white","no","yes","768","legacy","14","14","/Users/emmaleemorgan/Desktop/EM subject-2, f, 47.csv","legacy","Kafkaesque Koffka","3.2.5","0","h","NA","h","NA","NA","h","557","NA","23367","NA","NA","557","2","legacy","1024","2","48000","-16","experiment","SSHSS","2","even","28500","NA","NA","32366","NA","NA","55298","54229","5122","NA","NA","55411","55969","55287","55410","5100","Flanker Task","13","9491","15","yes","1024"
"87.5","87.5","632.25","632.25","black","legacy","legacy","legacy","0","Incongruent","uniform","1","undefined","1","s","0","0","0","15","15","0","15","15","0","0","0","15","15","15","15","0","Thu Sep  6 14:32:57 2018","1500","The main experiment item","yes","FlankerTask.osexp","/Users/emmaleemorgan/Desktop","no","mono","no","18","no","white","no","yes","768","legacy","15","15","/Users/emmaleemorgan/Desktop/EM subject-2, f, 47.csv","legacy","Kafkaesque Koffka","3.2.5","0","s","NA","h","NA","NA","s","625","NA","23367","NA","NA","625","2","legacy","1024","2","48000","-16","experiment","HHSHH","2","even","28500","NA","NA","32366","NA","NA","57054","55982","5122","NA","NA","57167","57793","57044","57167","5100","Flanker Task","14","10116","16","yes","1024"
"88.2352941176","88.2352941176","624.058823529","624.058823529","black","legacy","legacy","legacy","0","Congruent","uniform","1","undefined","1","s","0","0","0","16","16","0","16","16","0","0","0","16","16","16","16","0","Thu Sep  6 14:32:57 2018","1500","The main experiment item","yes","FlankerTask.osexp","/Users/emmaleemorgan/Desktop","no","mono","no","18","no","white","no","yes","768","legacy","16","16","/Users/emmaleemorgan/Desktop/EM subject-2, f, 47.csv","legacy","Kafkaesque Koffka","3.2.5","0","s","NA","h","NA","NA","s","493","NA","23367","NA","NA","493","2","legacy","1024","2","48000","-16","experiment","SSSSS","2","even","28500","NA","NA","32366","NA","NA","58878","57806","5122","NA","NA","58991","59485","58867","58991","5100","Flanker Task","15","10609","17","yes","1024"
"88.8888888889","88.8888888889","613.5","613.5","black","legacy","legacy","legacy","0","Congruent","uniform","1","undefined","1","h","0","0","0","17","17","0","17","17","0","0","0","17","17","17","17","0","Thu Sep  6 14:32:57 2018","1500","The main experiment item","yes","FlankerTask.osexp","/Users/emmaleemorgan/Desktop","no","mono","no","18","no","white","no","yes","768","legacy","17","17","/Users/emmaleemorgan/Desktop/EM subject-2, f, 47.csv","legacy","Kafkaesque Koffka","3.2.5","0","h","NA","h","NA","NA","h","434","NA","23367","NA","NA","434","2","legacy","1024","2","48000","-16","experiment","HHHHH","2","even","28500","NA","NA","32366","NA","NA","60578","59499","5122","NA","NA","60689","61124","60568","60689","5100","Flanker Task","16","11043","18","yes","1024"
"89.4736842105","89.4736842105","608.473684211","608.473684211","black","legacy","legacy","legacy","0","Congruent","uniform","1","undefined","1","s","0","0","0","18","18","0","18","18","0","0","0","18","18","18","18","0","Thu Sep  6 14:32:57 2018","1500","The main experiment item","yes","FlankerTask.osexp","/Users/emmaleemorgan/Desktop","no","mono","no","18","no","white","no","yes","768","legacy","18","18","/Users/emmaleemorgan/Desktop/EM subject-2, f, 47.csv","legacy","Kafkaesque Koffka","3.2.5","0","s","NA","h","NA","NA","s","518","NA","23367","NA","NA","518","2","legacy","1024","2","48000","-16","experiment","SSSSS","2","even","28500","NA","NA","32366","NA","NA","62208","61137","5122","NA","NA","62318","62837","62197","62318","5100","Flanker Task","17","11561","19","yes","1024"
"90","90","605.95","605.95","black","legacy","legacy","legacy","0","Incongruent","uniform","1","undefined","1","h","0","0","0","19","19","0","19","19","0","0","0","19","19","19","19","0","Thu Sep  6 14:32:57 2018","1500","The main experiment item","yes","FlankerTask.osexp","/Users/emmaleemorgan/Desktop","no","mono","no","18","no","white","no","yes","768","legacy","19","19","/Users/emmaleemorgan/Desktop/EM subject-2, f, 47.csv","legacy","Kafkaesque Koffka","3.2.5","0","h","NA","h","NA","NA","h","558","NA","23367","NA","NA","558","2","legacy","1024","2","48000","-16","experiment","SSHSS","2","even","28500","NA","NA","32366","NA","NA","63923","62852","5122","NA","NA","64033","64592","63913","64033","5100","Flanker Task","18","12119","20","yes","1024"
"90.4761904762","90.4761904762","609.428571429","609.428571429","black","legacy","legacy","legacy","0","Incongruent","uniform","1","undefined","1","s","0","0","0","20","20","0","20","20","0","0","0","20","20","20","20","0","Thu Sep  6 14:32:57 2018","1500","The main experiment item","yes","FlankerTask.osexp","/Users/emmaleemorgan/Desktop","no","mono","no","18","no","white","no","yes","768","legacy","20","20","/Users/emmaleemorgan/Desktop/EM subject-2, f, 47.csv","legacy","Kafkaesque Koffka","3.2.5","0","s","NA","h","NA","NA","s","679","NA","23367","NA","NA","679","2","legacy","1024","2","48000","-16","experiment","HHSHH","2","even","28500","NA","NA","32366","NA","NA","65683","64607","5122","NA","NA","65795","66475","65673","65795","5100","Flanker Task","19","12798","21","yes","1024"
"90.9090909091","90.9090909091","600.136363636","600.136363636","black","legacy","legacy","legacy","0","Congruent","uniform","1","undefined","1","h","0","0","0","21","21","0","21","21","0","0","0","21","21","21","21","0","Thu Sep  6 14:32:57 2018","1500","The main experiment item","yes","FlankerTask.osexp","/Users/emmaleemorgan/Desktop","no","mono","no","18","no","white","no","yes","768","legacy","21","21","/Users/emmaleemorgan/Desktop/EM subject-2, f, 47.csv","legacy","Kafkaesque Koffka","3.2.5","0","h","NA","h","NA","NA","h","405","NA","23367","NA","NA","405","2","legacy","1024","2","48000","-16","experiment","HHHHH","2","even","28500","NA","NA","32366","NA","NA","67561","66488","5122","NA","NA","67674","68080","67551","67674","5100","Flanker Task","20","13203","22","yes","1024"
"91.3043478261","91.3043478261","596.086956522","596.086956522","black","legacy","legacy","legacy","0","Incongruent","uniform","1","undefined","1","h","0","0","0","22","22","0","22","22","0","0","0","22","22","22","22","0","Thu Sep  6 14:32:57 2018","1500","The main experiment item","yes","FlankerTask.osexp","/Users/emmaleemorgan/Desktop","no","mono","no","18","no","white","no","yes","768","legacy","22","22","/Users/emmaleemorgan/Desktop/EM subject-2, f, 47.csv","legacy","Kafkaesque Koffka","3.2.5","0","h","NA","h","NA","NA","h","507","NA","23367","NA","NA","507","2","legacy","1024","2","48000","-16","experiment","SSHSS","2","even","28500","NA","NA","32366","NA","NA","69165","68092","5122","NA","NA","69275","69783","69154","69275","5100","Flanker Task","21","13710","23","yes","1024"
"91.6666666667","91.6666666667","592.25","592.25","black","legacy","legacy","legacy","0","Incongruent","uniform","1","undefined","1","s","0","0","0","23","23","0","23","23","0","0","0","23","23","23","23","0","Thu Sep  6 14:32:57 2018","1500","The main experiment item","yes","FlankerTask.osexp","/Users/emmaleemorgan/Desktop","no","mono","no","18","no","white","no","yes","768","legacy","23","23","/Users/emmaleemorgan/Desktop/EM subject-2, f, 47.csv","legacy","Kafkaesque Koffka","3.2.5","0","s","NA","h","NA","NA","s","504","NA","23367","NA","NA","504","2","legacy","1024","2","48000","-16","experiment","HHSHH","2","even","28500","NA","NA","32366","NA","NA","70868","69796","5122","NA","NA","70983","71488","70858","70983","5100","Flanker Task","22","14214","24","yes","1024"
"92","92","589.72","589.72","black","legacy","legacy","legacy","0","Incongruent","uniform","1","undefined","1","s","0","0","0","24","24","0","24","24","0","0","0","24","24","24","24","0","Thu Sep  6 14:32:57 2018","1500","The main experiment item","yes","FlankerTask.osexp","/Users/emmaleemorgan/Desktop","no","mono","no","18","no","white","no","yes","768","legacy","24","24","/Users/emmaleemorgan/Desktop/EM subject-2, f, 47.csv","legacy","Kafkaesque Koffka","3.2.5","0","s","NA","h","NA","NA","s","529","NA","23367","NA","NA","529","2","legacy","1024","2","48000","-16","experiment","HHSHH","2","even","28500","NA","NA","32366","NA","NA","72573","71501","5122","NA","NA","72685","73215","72563","72685","5100","Flanker Task","23","14743","25","yes","1024"
"92.3076923077","92.3076923077","586.307692308","586.307692308","black","legacy","legacy","legacy","0","Incongruent","uniform","1","undefined","1","s","0","0","0","25","25","0","25","25","0","0","0","25","25","25","25","0","Thu Sep  6 14:32:57 2018","1500","The main experiment item","yes","FlankerTask.osexp","/Users/emmaleemorgan/Desktop","no","mono","no","18","no","white","no","yes","768","legacy","25","25","/Users/emmaleemorgan/Desktop/EM subject-2, f, 47.csv","legacy","Kafkaesque Koffka","3.2.5","0","s","NA","h","NA","NA","s","501","NA","23367","NA","NA","501","2","legacy","1024","2","48000","-16","experiment","HHSHH","2","even","28500","NA","NA","32366","NA","NA","74306","73227","5122","NA","NA","74418","74920","74296","74418","5100","Flanker Task","24","15244","26","yes","1024"
"92.5925925926","92.5925925926","579.62962963","579.62962963","black","legacy","legacy","legacy","0","Congruent","uniform","1","undefined","1","h","0","0","0","26","26","0","26","26","0","0","0","26","26","26","26","0","Thu Sep  6 14:32:57 2018","1500","The main experiment item","yes","FlankerTask.osexp","/Users/emmaleemorgan/Desktop","no","mono","no","18","no","white","no","yes","768","legacy","26","26","/Users/emmaleemorgan/Desktop/EM subject-2, f, 47.csv","legacy","Kafkaesque Koffka","3.2.5","0","h","NA","h","NA","NA","h","406","NA","23367","NA","NA","406","2","legacy","1024","2","48000","-16","experiment","HHHHH","2","even","28500","NA","NA","32366","NA","NA","76003","74933","5122","NA","NA","76114","76521","75994","76114","5100","Flanker Task","25","15650","27","yes","1024"
"92.8571428571","92.8571428571","577.285714286","577.285714286","black","legacy","legacy","legacy","0","Congruent","uniform","1","undefined","1","h","0","0","0","27","27","0","27","27","0","0","0","27","27","27","27","0","Thu Sep  6 14:32:57 2018","1500","The main experiment item","yes","FlankerTask.osexp","/Users/emmaleemorgan/Desktop","no","mono","no","18","no","white","no","yes","768","legacy","27","27","/Users/emmaleemorgan/Desktop/EM subject-2, f, 47.csv","legacy","Kafkaesque Koffka","3.2.5","0","h","NA","h","NA","NA","h","514","NA","23367","NA","NA","514","2","legacy","1024","2","48000","-16","experiment","HHHHH","2","even","28500","NA","NA","32366","NA","NA","77606","76534","5122","NA","NA","77718","78233","77596","77718","5100","Flanker Task","26","16164","28","yes","1024"
"93.1034482759","93.1034482759","573.448275862","573.448275862","black","legacy","legacy","legacy","0","Congruent","uniform","1","undefined","1","s","0","0","0","28","28","0","28","28","0","0","0","28","28","28","28","0","Thu Sep  6 14:32:57 2018","1500","The main experiment item","yes","FlankerTask.osexp","/Users/emmaleemorgan/Desktop","no","mono","no","18","no","white","no","yes","768","legacy","28","28","/Users/emmaleemorgan/Desktop/EM subject-2, f, 47.csv","legacy","Kafkaesque Koffka","3.2.5","0","s","NA","h","NA","NA","s","466","NA","23367","NA","NA","466","2","legacy","1024","2","48000","-16","experiment","SSSSS","2","even","28500","NA","NA","32366","NA","NA","79316","78246","5122","NA","NA","79426","79893","79306","79426","5100","Flanker Task","27","16630","29","yes","1024"
"93.3333333333","93.3333333333","571.2","571.2","black","legacy","legacy","legacy","0","Incongruent","uniform","1","undefined","1","h","0","0","0","29","29","0","29","29","0","0","0","29","29","29","29","0","Thu Sep  6 14:32:57 2018","1500","The main experiment item","yes","FlankerTask.osexp","/Users/emmaleemorgan/Desktop","no","mono","no","18","no","white","no","yes","768","legacy","29","29","/Users/emmaleemorgan/Desktop/EM subject-2, f, 47.csv","legacy","Kafkaesque Koffka","3.2.5","0","h","NA","h","NA","NA","h","506","NA","23367","NA","NA","506","2","legacy","1024","2","48000","-16","experiment","SSHSS","2","even","28500","NA","NA","32366","NA","NA","80981","79909","5122","NA","NA","81093","81600","80971","81093","5100","Flanker Task","28","17136","30","yes","1024"
"93.5483870968","93.5483870968","569.483870968","569.483870968","black","legacy","legacy","legacy","0","Incongruent","uniform","1","undefined","1","h","0","0","0","30","30","0","30","30","0","0","0","30","30","30","30","0","Thu Sep  6 14:32:57 2018","1500","The main experiment item","yes","FlankerTask.osexp","/Users/emmaleemorgan/Desktop","no","mono","no","18","no","white","no","yes","768","legacy","30","30","/Users/emmaleemorgan/Desktop/EM subject-2, f, 47.csv","legacy","Kafkaesque Koffka","3.2.5","0","h","NA","h","NA","NA","h","518","NA","23367","NA","NA","518","2","legacy","1024","2","48000","-16","experiment","SSHSS","2","even","28500","NA","NA","32366","NA","NA","82683","81613","5122","NA","NA","82795","83314","82673","82795","5100","Flanker Task","29","17654","31","yes","1024"
"93.75","93.75","567.15625","567.15625","black","legacy","legacy","legacy","0","Congruent","uniform","1","undefined","1","s","0","0","0","31","31","0","31","31","0","0","0","31","31","31","31","0","Thu Sep  6 14:32:57 2018","1500","The main experiment item","yes","FlankerTask.osexp","/Users/emmaleemorgan/Desktop","no","mono","no","18","no","white","no","yes","768","legacy","31","31","/Users/emmaleemorgan/Desktop/EM subject-2, f, 47.csv","legacy","Kafkaesque Koffka","3.2.5","0","s","NA","h","NA","NA","s","495","NA","23367","NA","NA","495","2","legacy","1024","2","48000","-16","experiment","SSSSS","2","even","28500","NA","NA","32366","NA","NA","84394","83327","5122","NA","NA","84506","85002","84384","84506","5100","Flanker Task","30","18149","32","yes","1024"
"93.9393939394","93.9393939394","563.060606061","563.060606061","black","legacy","legacy","legacy","0","Incongruent","uniform","1","undefined","1","s","0","0","0","32","32","0","32","32","0","0","0","32","32","32","32","0","Thu Sep  6 14:32:57 2018","1500","The main experiment item","yes","FlankerTask.osexp","/Users/emmaleemorgan/Desktop","no","mono","no","18","no","white","no","yes","768","legacy","32","32","/Users/emmaleemorgan/Desktop/EM subject-2, f, 47.csv","legacy","Kafkaesque Koffka","3.2.5","0","s","NA","h","NA","NA","s","432","NA","23367","NA","NA","432","2","legacy","1024","2","48000","-16","experiment","HHSHH","2","even","28500","NA","NA","32366","NA","NA","86083","85015","5122","NA","NA","86196","86629","86073","86196","5100","Flanker Task","31","18581","33","yes","1024"
"94.1176470588","94.1176470588","557.411764706","557.411764706","black","legacy","legacy","legacy","0","Incongruent","uniform","1","undefined","1","s","0","0","0","33","33","0","33","33","0","0","0","33","33","33","33","0","Thu Sep  6 14:32:57 2018","1500","The main experiment item","yes","FlankerTask.osexp","/Users/emmaleemorgan/Desktop","no","mono","no","18","no","white","no","yes","768","legacy","33","33","/Users/emmaleemorgan/Desktop/EM subject-2, f, 47.csv","legacy","Kafkaesque Koffka","3.2.5","0","s","NA","h","NA","NA","s","371","NA","23367","NA","NA","371","2","legacy","1024","2","48000","-16","experiment","HHSHH","2","even","28500","NA","NA","32366","NA","NA","87714","86643","5122","NA","NA","87827","88199","87704","87827","5100","Flanker Task","32","18952","34","yes","1024"
"94.2857142857","94.2857142857","555.028571429","555.028571429","black","legacy","legacy","legacy","0","Congruent","uniform","1","undefined","1","h","0","0","0","34","34","0","34","34","0","0","0","34","34","34","34","0","Thu Sep  6 14:32:57 2018","1500","The main experiment item","yes","FlankerTask.osexp","/Users/emmaleemorgan/Desktop","no","mono","no","18","no","white","no","yes","768","legacy","34","34","/Users/emmaleemorgan/Desktop/EM subject-2, f, 47.csv","legacy","Kafkaesque Koffka","3.2.5","0","h","NA","h","NA","NA","h","474","NA","23367","NA","NA","474","2","legacy","1024","2","48000","-16","experiment","HHHHH","2","even","28500","NA","NA","32366","NA","NA","89283","88212","5122","NA","NA","89396","89872","89272","89396","5100","Flanker Task","33","19426","35","yes","1024"
"94.4444444444","94.4444444444","552.222222222","552.222222222","black","legacy","legacy","legacy","0","Congruent","uniform","1","undefined","1","s","0","0","0","35","35","0","35","35","0","0","0","35","35","35","35","0","Thu Sep  6 14:32:57 2018","1500","The main experiment item","yes","FlankerTask.osexp","/Users/emmaleemorgan/Desktop","no","mono","no","18","no","white","no","yes","768","legacy","35","35","/Users/emmaleemorgan/Desktop/EM subject-2, f, 47.csv","legacy","Kafkaesque Koffka","3.2.5","0","s","NA","h","NA","NA","s","454","NA","23367","NA","NA","454","2","legacy","1024","2","48000","-16","experiment","SSSSS","2","even","28500","NA","NA","32366","NA","NA","90956","89885","5122","NA","NA","91069","91524","90945","91069","5100","Flanker Task","34","19880","36","yes","1024"
"91.8918918919","91.8918918919","549.405405405","549.405405405","black","legacy","legacy","legacy","0","Incongruent","uniform","0","undefined","0","h","0","0","0","36","36","0","36","36","0","0","0","36","36","36","36","0","Thu Sep  6 14:32:57 2018","1500","The main experiment item","yes","FlankerTask.osexp","/Users/emmaleemorgan/Desktop","no","mono","no","18","no","white","no","yes","768","legacy","36","36","/Users/emmaleemorgan/Desktop/EM subject-2, f, 47.csv","legacy","Kafkaesque Koffka","3.2.5","0","s","NA","h","NA","NA","s","448","NA","23367","NA","NA","448","2","legacy","1024","2","48000","-16","experiment","SSHSS","2","even","28500","NA","NA","32366","NA","NA","92608","91537","5122","NA","NA","92721","93170","92598","92721","5100","Flanker Task","34","20328","37","yes","1024"
"92.1052631579","92.1052631579","550.394736842","550.394736842","black","legacy","legacy","legacy","0","Congruent","uniform","1","undefined","1","s","0","0","0","37","37","0","37","37","0","0","0","37","37","37","37","0","Thu Sep  6 14:32:57 2018","1500","The main experiment item","yes","FlankerTask.osexp","/Users/emmaleemorgan/Desktop","no","mono","no","18","no","white","no","yes","768","legacy","37","37","/Users/emmaleemorgan/Desktop/EM subject-2, f, 47.csv","legacy","Kafkaesque Koffka","3.2.5","0","s","NA","h","NA","NA","s","587","NA","23367","NA","NA","587","2","legacy","1024","2","48000","-16","experiment","SSSSS","2","even","28500","NA","NA","93183","NA","NA","94763","93693","5122","NA","NA","94874","95463","94753","94874","5100","Flanker Task","35","20915","38","yes","1024"
"92.3076923077","92.3076923077","551.641025641","551.641025641","black","legacy","legacy","legacy","0","Incongruent","uniform","1","undefined","1","s","0","0","0","38","38","0","38","38","0","0","0","38","38","38","38","0","Thu Sep  6 14:32:57 2018","1500","The main experiment item","yes","FlankerTask.osexp","/Users/emmaleemorgan/Desktop","no","mono","no","18","no","white","no","yes","768","legacy","38","38","/Users/emmaleemorgan/Desktop/EM subject-2, f, 47.csv","legacy","Kafkaesque Koffka","3.2.5","0","s","NA","h","NA","NA","s","599","NA","23367","NA","NA","599","2","legacy","1024","2","48000","-16","experiment","HHSHH","2","even","28500","NA","NA","93183","NA","NA","96547","95475","5122","NA","NA","96660","97260","96537","96659","5100","Flanker Task","36","21514","39","yes","1024"
"92.5","92.5","552.925","552.925","black","legacy","legacy","legacy","0","Incongruent","uniform","1","undefined","1","h","0","0","0","39","39","0","39","39","0","0","0","39","39","39","39","0","Thu Sep  6 14:32:57 2018","1500","The main experiment item","yes","FlankerTask.osexp","/Users/emmaleemorgan/Desktop","no","mono","no","18","no","white","no","yes","768","legacy","39","39","/Users/emmaleemorgan/Desktop/EM subject-2, f, 47.csv","legacy","Kafkaesque Koffka","3.2.5","0","h","NA","h","NA","NA","h","603","NA","23367","NA","NA","603","2","legacy","1024","2","48000","-16","experiment","SSHSS","2","even","28500","NA","NA","93183","NA","NA","98345","97273","5122","NA","NA","98458","99062","98335","98458","5100","Flanker Task","37","22117","40","yes","1024"
"92.6829268293","92.6829268293","550.170731707","550.170731707","black","legacy","legacy","legacy","0","Congruent","uniform","1","undefined","1","s","0","0","0","40","40","0","40","40","0","0","0","40","40","40","40","0","Thu Sep  6 14:32:57 2018","1500","The main experiment item","yes","FlankerTask.osexp","/Users/emmaleemorgan/Desktop","no","mono","no","18","no","white","no","yes","768","legacy","40","40","/Users/emmaleemorgan/Desktop/EM subject-2, f, 47.csv","legacy","Kafkaesque Koffka","3.2.5","0","s","NA","h","NA","NA","s","440","NA","23367","NA","NA","440","2","legacy","1024","2","48000","-16","experiment","SSSSS","2","even","28500","NA","NA","93183","NA","NA","100145","99076","5122","NA","NA","100257","100698","100135","100256","5100","Flanker Task","38","22557","41","yes","1024"
"92.8571428571","92.8571428571","548.095238095","548.095238095","black","legacy","legacy","legacy","0","Congruent","uniform","1","undefined","1","s","0","0","0","41","41","0","41","41","0","0","0","41","41","41","41","0","Thu Sep  6 14:32:57 2018","1500","The main experiment item","yes","FlankerTask.osexp","/Users/emmaleemorgan/Desktop","no","mono","no","18","no","white","no","yes","768","legacy","41","41","/Users/emmaleemorgan/Desktop/EM subject-2, f, 47.csv","legacy","Kafkaesque Koffka","3.2.5","0","s","NA","h","NA","NA","s","463","NA","23367","NA","NA","463","2","legacy","1024","2","48000","-16","experiment","SSSSS","2","even","28500","NA","NA","93183","NA","NA","101783","100711","5122","NA","NA","101896","102360","101772","101896","5100","Flanker Task","39","23020","42","yes","1024"
"93.023255814","93.023255814","546.279069767","546.279069767","black","legacy","legacy","legacy","0","Congruent","uniform","1","undefined","1","s","0","0","0","42","42","0","42","42","0","0","0","42","42","42","42","0","Thu Sep  6 14:32:57 2018","1500","The main experiment item","yes","FlankerTask.osexp","/Users/emmaleemorgan/Desktop","no","mono","no","18","no","white","no","yes","768","legacy","42","42","/Users/emmaleemorgan/Desktop/EM subject-2, f, 47.csv","legacy","Kafkaesque Koffka","3.2.5","0","s","NA","h","NA","NA","s","470","NA","23367","NA","NA","470","2","legacy","1024","2","48000","-16","experiment","SSSSS","2","even","28500","NA","NA","93183","NA","NA","103446","102373","5122","NA","NA","103557","104028","103436","103557","5100","Flanker Task","40","23490","43","yes","1024"
"93.1818181818","93.1818181818","544.636363636","544.636363636","black","legacy","legacy","legacy","0","Incongruent","uniform","1","undefined","1","s","0","0","0","43","43","0","43","43","0","0","0","43","43","43","43","0","Thu Sep  6 14:32:57 2018","1500","The main experiment item","yes","FlankerTask.osexp","/Users/emmaleemorgan/Desktop","no","mono","no","18","no","white","no","yes","768","legacy","43","43","/Users/emmaleemorgan/Desktop/EM subject-2, f, 47.csv","legacy","Kafkaesque Koffka","3.2.5","0","s","NA","h","NA","NA","s","474","NA","23367","NA","NA","474","2","legacy","1024","2","48000","-16","experiment","HHSHH","2","even","28500","NA","NA","93183","NA","NA","105115","104043","5122","NA","NA","105231","105706","105105","105231","5100","Flanker Task","41","23964","44","yes","1024"
"93.3333333333","93.3333333333","544.422222222","544.422222222","black","legacy","legacy","legacy","0","Incongruent","uniform","1","undefined","1","s","0","0","0","44","44","0","44","44","0","0","0","44","44","44","44","0","Thu Sep  6 14:32:57 2018","1500","The main experiment item","yes","FlankerTask.osexp","/Users/emmaleemorgan/Desktop","no","mono","no","18","no","white","no","yes","768","legacy","44","44","/Users/emmaleemorgan/Desktop/EM subject-2, f, 47.csv","legacy","Kafkaesque Koffka","3.2.5","0","s","NA","h","NA","NA","s","535","NA","23367","NA","NA","535","2","legacy","1024","2","48000","-16","experiment","HHSHH","2","even","28500","NA","NA","93183","NA","NA","106791","105720","5122","NA","NA","106902","107438","106781","106902","5100","Flanker Task","42","24499","45","yes","1024"
"93.4782608696","93.4782608696","541.456521739","541.456521739","black","legacy","legacy","legacy","0","Congruent","uniform","1","undefined","1","s","0","0","0","45","45","0","45","45","0","0","0","45","45","45","45","0","Thu Sep  6 14:32:57 2018","1500","The main experiment item","yes","FlankerTask.osexp","/Users/emmaleemorgan/Desktop","no","mono","no","18","no","white","no","yes","768","legacy","45","45","/Users/emmaleemorgan/Desktop/EM subject-2, f, 47.csv","legacy","Kafkaesque Koffka","3.2.5","0","s","NA","h","NA","NA","s","408","NA","23367","NA","NA","408","2","legacy","1024","2","48000","-16","experiment","SSSSS","2","even","28500","NA","NA","93183","NA","NA","108523","107451","5122","NA","NA","108636","109045","108513","108636","5100","Flanker Task","43","24907","46","yes","1024"
"93.6170212766","93.6170212766","537.808510638","537.808510638","black","legacy","legacy","legacy","0","Congruent","uniform","1","undefined","1","h","0","0","0","46","46","0","46","46","0","0","0","46","46","46","46","0","Thu Sep  6 14:32:57 2018","1500","The main experiment item","yes","FlankerTask.osexp","/Users/emmaleemorgan/Desktop","no","mono","no","18","no","white","no","yes","768","legacy","46","46","/Users/emmaleemorgan/Desktop/EM subject-2, f, 47.csv","legacy","Kafkaesque Koffka","3.2.5","0","h","NA","h","NA","NA","h","370","NA","23367","NA","NA","370","2","legacy","1024","2","48000","-16","experiment","HHHHH","2","even","28500","NA","NA","93183","NA","NA","110135","109058","5122","NA","NA","110245","110617","110125","110245","5100","Flanker Task","44","25277","47","yes","1024"
"93.75","93.75","535.8125","535.8125","black","legacy","legacy","legacy","0","Congruent","uniform","1","undefined","1","h","0","0","0","47","47","0","47","47","0","0","0","47","47","47","47","0","Thu Sep  6 14:32:57 2018","1500","The main experiment item","yes","FlankerTask.osexp","/Users/emmaleemorgan/Desktop","no","mono","no","18","no","white","no","yes","768","legacy","47","47","/Users/emmaleemorgan/Desktop/EM subject-2, f, 47.csv","legacy","Kafkaesque Koffka","3.2.5","0","h","NA","h","NA","NA","h","442","NA","23367","NA","NA","442","2","legacy","1024","2","48000","-16","experiment","HHHHH","2","even","28500","NA","NA","93183","NA","NA","111700","110630","5122","NA","NA","111814","112257","111690","111814","5100","Flanker Task","45","25719","48","yes","1024"
"93.8775510204","93.8775510204","532.93877551","532.93877551","black","legacy","legacy","legacy","0","Congruent","uniform","1","undefined","1","h","0","0","0","48","48","0","48","48","0","0","0","48","48","48","48","0","Thu Sep  6 14:32:57 2018","1500","The main experiment item","yes","FlankerTask.osexp","/Users/emmaleemorgan/Desktop","no","mono","no","18","no","white","no","yes","768","legacy","48","48","/Users/emmaleemorgan/Desktop/EM subject-2, f, 47.csv","legacy","Kafkaesque Koffka","3.2.5","0","h","NA","h","NA","NA","h","395","NA","23367","NA","NA","395","2","legacy","1024","2","48000","-16","experiment","HHHHH","2","even","28500","NA","NA","93183","NA","NA","113341","112270","5122","NA","NA","113451","113847","113331","113451","5100","Flanker Task","46","26114","49","yes","1024"
"94","94","531.64","531.64","black","legacy","legacy","legacy","0","Incongruent","uniform","1","undefined","1","s","0","0","0","49","49","0","49","49","0","0","0","49","49","49","49","0","Thu Sep  6 14:32:57 2018","1500","The main experiment item","yes","FlankerTask.osexp","/Users/emmaleemorgan/Desktop","no","mono","no","18","no","white","no","yes","768","legacy","49","49","/Users/emmaleemorgan/Desktop/EM subject-2, f, 47.csv","legacy","Kafkaesque Koffka","3.2.5","0","s","NA","h","NA","NA","s","468","NA","23367","NA","NA","468","2","legacy","1024","2","48000","-16","experiment","HHSHH","2","even","28500","NA","NA","93183","NA","NA","114935","113860","5122","NA","NA","115048","115517","114925","115047","5100","Flanker Task","47","26582","50","yes","1024"
"94.1176470588","94.1176470588","529.666666667","529.666666667","black","legacy","legacy","legacy","0","Congruent","uniform","1","undefined","1","s","0","0","0","50","50","0","50","50","0","0","0","50","50","50","50","0","Thu Sep  6 14:32:57 2018","1500","The main experiment item","yes","FlankerTask.osexp","/Users/emmaleemorgan/Desktop","no","mono","no","18","no","white","no","yes","768","legacy","50","50","/Users/emmaleemorgan/Desktop/EM subject-2, f, 47.csv","legacy","Kafkaesque Koffka","3.2.5","0","s","NA","h","NA","NA","s","431","NA","23367","NA","NA","431","2","legacy","1024","2","48000","-16","experiment","SSSSS","2","even","28500","NA","NA","93183","NA","NA","116600","115529","5122","NA","NA","116715","117148","116590","116715","5100","Flanker Task","48","27013","51","yes","1024"
"94.2307692308","94.2307692308","528","528","black","legacy","legacy","legacy","0","Congruent","uniform","1","undefined","1","h","0","0","0","51","51","0","51","51","0","0","0","51","51","51","51","0","Thu Sep  6 14:32:57 2018","1500","The main experiment item","yes","FlankerTask.osexp","/Users/emmaleemorgan/Desktop","no","mono","no","18","no","white","no","yes","768","legacy","51","51","/Users/emmaleemorgan/Desktop/EM subject-2, f, 47.csv","legacy","Kafkaesque Koffka","3.2.5","0","h","NA","h","NA","NA","h","443","NA","23367","NA","NA","443","2","legacy","1024","2","48000","-16","experiment","HHHHH","2","even","28500","NA","NA","93183","NA","NA","118231","117160","5122","NA","NA","118344","118788","118220","118344","5100","Flanker Task","49","27456","52","yes","1024"
"94.3396226415","94.3396226415","531.132075472","531.132075472","black","legacy","legacy","legacy","0","Incongruent","uniform","1","undefined","1","h","0","0","0","52","52","0","52","52","0","0","0","52","52","52","52","0","Thu Sep  6 14:32:57 2018","1500","The main experiment item","yes","FlankerTask.osexp","/Users/emmaleemorgan/Desktop","no","mono","no","18","no","white","no","yes","768","legacy","52","52","/Users/emmaleemorgan/Desktop/EM subject-2, f, 47.csv","legacy","Kafkaesque Koffka","3.2.5","0","h","NA","h","NA","NA","h","694","NA","23367","NA","NA","694","2","legacy","1024","2","48000","-16","experiment","SSHSS","2","even","28500","NA","NA","93183","NA","NA","119875","118801","5122","NA","NA","119987","120684","119864","119987","5100","Flanker Task","50","28150","53","yes","1024"
"94.4444444444","94.4444444444","532.185185185","532.185185185","black","legacy","legacy","legacy","0","Incongruent","uniform","1","undefined","1","h","0","0","0","53","53","0","53","53","0","0","0","53","53","53","53","0","Thu Sep  6 14:32:57 2018","1500","The main experiment item","yes","FlankerTask.osexp","/Users/emmaleemorgan/Desktop","no","mono","no","18","no","white","no","yes","768","legacy","53","53","/Users/emmaleemorgan/Desktop/EM subject-2, f, 47.csv","legacy","Kafkaesque Koffka","3.2.5","0","h","NA","h","NA","NA","h","588","NA","23367","NA","NA","588","2","legacy","1024","2","48000","-16","experiment","SSHSS","2","even","28500","NA","NA","93183","NA","NA","121768","120697","5122","NA","NA","121879","122468","121758","121879","5100","Flanker Task","51","28738","54","yes","1024"
"94.5454545455","94.5454545455","531.163636364","531.163636364","black","legacy","legacy","legacy","0","Congruent","uniform","1","undefined","1","s","0","0","0","54","54","0","54","54","0","0","0","54","54","54","54","0","Thu Sep  6 14:32:57 2018","1500","The main experiment item","yes","FlankerTask.osexp","/Users/emmaleemorgan/Desktop","no","mono","no","18","no","white","no","yes","768","legacy","54","54","/Users/emmaleemorgan/Desktop/EM subject-2, f, 47.csv","legacy","Kafkaesque Koffka","3.2.5","0","s","NA","h","NA","NA","s","476","NA","23367","NA","NA","476","2","legacy","1024","2","48000","-16","experiment","SSSSS","2","even","28500","NA","NA","93183","NA","NA","123556","122480","5122","NA","NA","123669","124146","123545","123668","5100","Flanker Task","52","29214","55","yes","1024"
"94.6428571429","94.6428571429","529.696428571","529.696428571","black","legacy","legacy","legacy","0","Congruent","uniform","1","undefined","1","h","0","0","0","55","55","0","55","55","0","0","0","55","55","55","55","0","Thu Sep  6 14:32:57 2018","1500","The main experiment item","yes","FlankerTask.osexp","/Users/emmaleemorgan/Desktop","no","mono","no","18","no","white","no","yes","768","legacy","55","55","/Users/emmaleemorgan/Desktop/EM subject-2, f, 47.csv","legacy","Kafkaesque Koffka","3.2.5","0","h","NA","h","NA","NA","h","449","NA","23367","NA","NA","449","2","legacy","1024","2","48000","-16","experiment","HHHHH","2","even","28500","NA","NA","93183","NA","NA","125231","124160","5122","NA","NA","125343","125793","125221","125343","5100","Flanker Task","53","29663","56","yes","1024"
"94.7368421053","94.7368421053","531.122807018","531.122807018","black","legacy","legacy","legacy","0","Incongruent","uniform","1","undefined","1","s","0","0","0","56","56","0","56","56","0","0","0","56","56","56","56","0","Thu Sep  6 14:32:57 2018","1500","The main experiment item","yes","FlankerTask.osexp","/Users/emmaleemorgan/Desktop","no","mono","no","18","no","white","no","yes","768","legacy","56","56","/Users/emmaleemorgan/Desktop/EM subject-2, f, 47.csv","legacy","Kafkaesque Koffka","3.2.5","0","s","NA","h","NA","NA","s","611","NA","23367","NA","NA","611","2","legacy","1024","2","48000","-16","experiment","HHSHH","2","even","28500","NA","NA","93183","NA","NA","126878","125807","5122","NA","NA","126992","127604","126867","126992","5100","Flanker Task","54","30274","57","yes","1024"
"94.8275862069","94.8275862069","532.706896552","532.706896552","black","legacy","legacy","legacy","0","Incongruent","uniform","1","undefined","1","h","0","0","0","57","57","0","57","57","0","0","0","57","57","57","57","0","Thu Sep  6 14:32:57 2018","1500","The main experiment item","yes","FlankerTask.osexp","/Users/emmaleemorgan/Desktop","no","mono","no","18","no","white","no","yes","768","legacy","57","57","/Users/emmaleemorgan/Desktop/EM subject-2, f, 47.csv","legacy","Kafkaesque Koffka","3.2.5","0","h","NA","h","NA","NA","h","623","NA","23367","NA","NA","623","2","legacy","1024","2","48000","-16","experiment","SSHSS","2","even","28500","NA","NA","93183","NA","NA","128689","127617","5122","NA","NA","128802","129427","128679","128802","5100","Flanker Task","55","30897","58","yes","1024"
"94.9152542373","94.9152542373","531.220338983","531.220338983","black","legacy","legacy","legacy","0","Congruent","uniform","1","undefined","1","s","0","0","0","58","58","0","58","58","0","0","0","58","58","58","58","0","Thu Sep  6 14:32:57 2018","1500","The main experiment item","yes","FlankerTask.osexp","/Users/emmaleemorgan/Desktop","no","mono","no","18","no","white","no","yes","768","legacy","58","58","/Users/emmaleemorgan/Desktop/EM subject-2, f, 47.csv","legacy","Kafkaesque Koffka","3.2.5","0","s","NA","h","NA","NA","s","445","NA","23367","NA","NA","445","2","legacy","1024","2","48000","-16","experiment","SSSSS","2","even","28500","NA","NA","93183","NA","NA","130512","129440","5122","NA","NA","130625","131071","130501","130625","5100","Flanker Task","56","31342","59","yes","1024"
"95","95","530.716666667","530.716666667","black","legacy","legacy","legacy","0","Incongruent","uniform","1","undefined","1","h","0","0","0","59","59","0","59","59","0","0","0","59","59","59","59","0","Thu Sep  6 14:32:57 2018","1500","The main experiment item","yes","FlankerTask.osexp","/Users/emmaleemorgan/Desktop","no","mono","no","18","no","white","no","yes","768","legacy","59","59","/Users/emmaleemorgan/Desktop/EM subject-2, f, 47.csv","legacy","Kafkaesque Koffka","3.2.5","0","h","NA","h","NA","NA","h","501","NA","23367","NA","NA","501","2","legacy","1024","2","48000","-16","experiment","SSHSS","2","even","28500","NA","NA","93183","NA","NA","132155","131085","5122","NA","NA","132267","132770","132144","132266","5100","Flanker Task","57","31843","60","yes","1024"
"95.0819672131","95.0819672131","531.68852459","531.68852459","black","legacy","legacy","legacy","0","Congruent","uniform","1","undefined","1","s","0","0","0","60","60","0","60","60","0","0","0","60","60","60","60","0","Thu Sep  6 14:32:57 2018","1500","The main experiment item","yes","FlankerTask.osexp","/Users/emmaleemorgan/Desktop","no","mono","no","18","no","white","no","yes","768","legacy","60","60","/Users/emmaleemorgan/Desktop/EM subject-2, f, 47.csv","legacy","Kafkaesque Koffka","3.2.5","0","s","NA","h","NA","NA","s","590","NA","23367","NA","NA","590","2","legacy","1024","2","48000","-16","experiment","SSSSS","2","even","28500","NA","NA","93183","NA","NA","133854","132783","5122","NA","NA","133969","134560","133843","133969","5100","Flanker Task","58","32433","61","yes","1024"
"95.1612903226","95.1612903226","530.548387097","530.548387097","black","legacy","legacy","legacy","0","Congruent","uniform","1","undefined","1","s","0","0","0","61","61","0","61","61","0","0","0","61","61","61","61","0","Thu Sep  6 14:32:57 2018","1500","The main experiment item","yes","FlankerTask.osexp","/Users/emmaleemorgan/Desktop","no","mono","no","18","no","white","no","yes","768","legacy","61","61","/Users/emmaleemorgan/Desktop/EM subject-2, f, 47.csv","legacy","Kafkaesque Koffka","3.2.5","0","s","NA","h","NA","NA","s","461","NA","23367","NA","NA","461","2","legacy","1024","2","48000","-16","experiment","SSSSS","2","even","28500","NA","NA","93183","NA","NA","135645","134574","5122","NA","NA","135755","136218","135635","135755","5100","Flanker Task","59","32894","62","yes","1024"
"95.2380952381","95.2380952381","530.523809524","530.523809524","black","legacy","legacy","legacy","0","Incongruent","uniform","1","undefined","1","h","0","0","0","62","62","0","62","62","0","0","0","62","62","62","62","0","Thu Sep  6 14:32:57 2018","1500","The main experiment item","yes","FlankerTask.osexp","/Users/emmaleemorgan/Desktop","no","mono","no","18","no","white","no","yes","768","legacy","62","62","/Users/emmaleemorgan/Desktop/EM subject-2, f, 47.csv","legacy","Kafkaesque Koffka","3.2.5","0","h","NA","h","NA","NA","h","529","NA","23367","NA","NA","529","2","legacy","1024","2","48000","-16","experiment","SSHSS","2","even","28500","NA","NA","93183","NA","NA","137301","136231","5122","NA","NA","137414","137945","137291","137414","5100","Flanker Task","60","33423","63","yes","1024"
"95.3125","95.3125","530.484375","530.484375","black","legacy","legacy","legacy","0","Congruent","uniform","1","undefined","1","s","0","0","0","63","63","0","63","63","0","0","0","63","63","63","63","0","Thu Sep  6 14:32:57 2018","1500","The main experiment item","yes","FlankerTask.osexp","/Users/emmaleemorgan/Desktop","no","mono","no","18","no","white","no","yes","768","legacy","63","63","/Users/emmaleemorgan/Desktop/EM subject-2, f, 47.csv","legacy","Kafkaesque Koffka","3.2.5","0","s","NA","h","NA","NA","s","528","NA","23367","NA","NA","528","2","legacy","1024","2","48000","-16","experiment","SSSSS","2","even","28500","NA","NA","93183","NA","NA","139024","137957","5122","NA","NA","139134","139664","139014","139134","5100","Flanker Task","61","33951","64","yes","1024"
"95.3846153846","95.3846153846","530.261538462","530.261538462","black","legacy","legacy","legacy","0","Incongruent","uniform","1","undefined","1","h","0","0","0","64","64","0","64","64","0","0","0","64","64","64","64","0","Thu Sep  6 14:32:57 2018","1500","The main experiment item","yes","FlankerTask.osexp","/Users/emmaleemorgan/Desktop","no","mono","no","18","no","white","no","yes","768","legacy","64","64","/Users/emmaleemorgan/Desktop/EM subject-2, f, 47.csv","legacy","Kafkaesque Koffka","3.2.5","0","h","NA","h","NA","NA","h","516","NA","23367","NA","NA","516","2","legacy","1024","2","48000","-16","experiment","SSHSS","2","even","28500","NA","NA","93183","NA","NA","140750","139678","5122","NA","NA","140864","141381","140739","140864","5100","Flanker Task","62","34467","65","yes","1024"
"95.4545454545","95.4545454545","532.257575758","532.257575758","black","legacy","legacy","legacy","0","Incongruent","uniform","1","undefined","1","s","0","0","0","65","65","0","65","65","0","0","0","65","65","65","65","0","Thu Sep  6 14:32:57 2018","1500","The main experiment item","yes","FlankerTask.osexp","/Users/emmaleemorgan/Desktop","no","mono","no","18","no","white","no","yes","768","legacy","65","65","/Users/emmaleemorgan/Desktop/EM subject-2, f, 47.csv","legacy","Kafkaesque Koffka","3.2.5","0","s","NA","h","NA","NA","s","662","NA","23367","NA","NA","662","2","legacy","1024","2","48000","-16","experiment","HHSHH","2","even","28500","NA","NA","93183","NA","NA","142467","141394","5122","NA","NA","142579","143243","142457","142579","5100","Flanker Task","63","35129","66","yes","1024"
"95.5223880597","95.5223880597","530.582089552","530.582089552","black","legacy","legacy","legacy","0","Congruent","uniform","1","undefined","1","h","0","0","0","66","66","0","66","66","0","0","0","66","66","66","66","0","Thu Sep  6 14:32:57 2018","1500","The main experiment item","yes","FlankerTask.osexp","/Users/emmaleemorgan/Desktop","no","mono","no","18","no","white","no","yes","768","legacy","66","66","/Users/emmaleemorgan/Desktop/EM subject-2, f, 47.csv","legacy","Kafkaesque Koffka","3.2.5","0","h","NA","h","NA","NA","h","420","NA","23367","NA","NA","420","2","legacy","1024","2","48000","-16","experiment","HHHHH","2","even","28500","NA","NA","93183","NA","NA","144328","143256","5122","NA","NA","144440","144861","144317","144440","5100","Flanker Task","64","35549","67","yes","1024"
"95.5882352941","95.5882352941","530","530","black","legacy","legacy","legacy","0","Congruent","uniform","1","undefined","1","h","0","0","0","67","67","0","67","67","0","0","0","67","67","67","67","0","Thu Sep  6 14:32:57 2018","1500","The main experiment item","yes","FlankerTask.osexp","/Users/emmaleemorgan/Desktop","no","mono","no","18","no","white","no","yes","768","legacy","67","67","/Users/emmaleemorgan/Desktop/EM subject-2, f, 47.csv","legacy","Kafkaesque Koffka","3.2.5","0","h","NA","h","NA","NA","h","491","NA","23367","NA","NA","491","2","legacy","1024","2","48000","-16","experiment","HHHHH","2","even","28500","NA","NA","93183","NA","NA","145948","144876","5122","NA","NA","146060","146553","145938","146060","5100","Flanker Task","65","36040","68","yes","1024"
"95.652173913","95.652173913","528.884057971","528.884057971","black","legacy","legacy","legacy","0","Incongruent","uniform","1","undefined","1","s","0","0","0","68","68","0","68","68","0","0","0","68","68","68","68","0","Thu Sep  6 14:32:57 2018","1500","The main experiment item","yes","FlankerTask.osexp","/Users/emmaleemorgan/Desktop","no","mono","no","18","no","white","no","yes","768","legacy","68","68","/Users/emmaleemorgan/Desktop/EM subject-2, f, 47.csv","legacy","Kafkaesque Koffka","3.2.5","0","s","NA","h","NA","NA","s","453","NA","23367","NA","NA","453","2","legacy","1024","2","48000","-16","experiment","HHSHH","2","even","28500","NA","NA","93183","NA","NA","147639","146566","5122","NA","NA","147752","148207","147628","147752","5100","Flanker Task","66","36493","69","yes","1024"
"95.7142857143","95.7142857143","528.885714286","528.885714286","black","legacy","legacy","legacy","0","Incongruent","uniform","1","undefined","1","h","0","0","0","69","69","0","69","69","0","0","0","69","69","69","69","0","Thu Sep  6 14:32:57 2018","1500","The main experiment item","yes","FlankerTask.osexp","/Users/emmaleemorgan/Desktop","no","mono","no","18","no","white","no","yes","768","legacy","69","69","/Users/emmaleemorgan/Desktop/EM subject-2, f, 47.csv","legacy","Kafkaesque Koffka","3.2.5","0","h","NA","h","NA","NA","h","529","NA","23367","NA","NA","529","2","legacy","1024","2","48000","-16","experiment","SSHSS","2","even","28500","NA","NA","93183","NA","NA","149295","148220","5122","NA","NA","149408","149939","149285","149407","5100","Flanker Task","67","37022","70","yes","1024"
"95.7746478873","95.7746478873","527.732394366","527.732394366","black","legacy","legacy","legacy","0","Incongruent","uniform","1","undefined","1","s","0","0","0","70","70","0","70","70","0","0","0","70","70","70","70","0","Thu Sep  6 14:32:57 2018","1500","The main experiment item","yes","FlankerTask.osexp","/Users/emmaleemorgan/Desktop","no","mono","no","18","no","white","no","yes","768","legacy","70","70","/Users/emmaleemorgan/Desktop/EM subject-2, f, 47.csv","legacy","Kafkaesque Koffka","3.2.5","0","s","NA","h","NA","NA","s","447","NA","23367","NA","NA","447","2","legacy","1024","2","48000","-16","experiment","HHSHH","2","even","28500","NA","NA","93183","NA","NA","151021","149951","5122","NA","NA","151133","151582","151010","151133","5100","Flanker Task","68","37469","71","yes","1024"
"95.8333333333","95.8333333333","526.888888889","526.888888889","black","legacy","legacy","legacy","0","Incongruent","uniform","1","undefined","1","h","0","0","0","71","71","0","71","71","0","0","0","71","71","71","71","0","Thu Sep  6 14:32:57 2018","1500","The main experiment item","yes","FlankerTask.osexp","/Users/emmaleemorgan/Desktop","no","mono","no","18","no","white","no","yes","768","legacy","71","71","/Users/emmaleemorgan/Desktop/EM subject-2, f, 47.csv","legacy","Kafkaesque Koffka","3.2.5","0","h","NA","h","NA","NA","h","467","NA","23367","NA","NA","467","2","legacy","1024","2","48000","-16","experiment","SSHSS","2","even","28500","NA","NA","93183","NA","NA","152667","151594","5122","NA","NA","152778","153247","152656","152777","5100","Flanker Task","69","37936","72","yes","1024"
"95.8904109589","95.8904109589","526.397260274","526.397260274","black","legacy","legacy","legacy","0","Congruent","uniform","1","undefined","1","h","0","0","0","72","72","0","72","72","0","0","0","72","72","72","72","0","Thu Sep  6 14:32:57 2018","1500","The main experiment item","yes","FlankerTask.osexp","/Users/emmaleemorgan/Desktop","no","mono","no","18","no","white","no","yes","768","legacy","72","72","/Users/emmaleemorgan/Desktop/EM subject-2, f, 47.csv","legacy","Kafkaesque Koffka","3.2.5","0","h","NA","h","NA","NA","h","491","NA","23367","NA","NA","491","2","legacy","1024","2","48000","-16","experiment","HHHHH","2","even","28500","NA","NA","93183","NA","NA","154337","153260","5122","NA","NA","154450","154942","154327","154450","5100","Flanker Task","70","38427","73","yes","1024"
"95.9459459459","95.9459459459","525.013513514","525.013513514","black","legacy","legacy","legacy","0","Congruent","uniform","1","undefined","1","h","0","0","0","73","73","0","73","73","0","0","0","73","73","73","73","0","Thu Sep  6 14:32:57 2018","1500","The main experiment item","yes","FlankerTask.osexp","/Users/emmaleemorgan/Desktop","no","mono","no","18","no","white","no","yes","768","legacy","73","73","/Users/emmaleemorgan/Desktop/EM subject-2, f, 47.csv","legacy","Kafkaesque Koffka","3.2.5","0","h","NA","h","NA","NA","h","424","NA","23367","NA","NA","424","2","legacy","1024","2","48000","-16","experiment","HHHHH","2","even","28500","NA","NA","93183","NA","NA","156025","154956","5122","NA","NA","156137","156563","156015","156137","5100","Flanker Task","71","38851","74","yes","1024"
"94.6666666667","94.6666666667","524.36","524.36","black","legacy","legacy","legacy","0","Incongruent","uniform","0","undefined","0","h","0","0","0","74","74","0","74","74","0","0","0","74","74","74","74","0","Thu Sep  6 14:32:57 2018","1500","The main experiment item","yes","FlankerTask.osexp","/Users/emmaleemorgan/Desktop","no","mono","no","18","no","white","no","yes","768","legacy","74","74","/Users/emmaleemorgan/Desktop/EM subject-2, f, 47.csv","legacy","Kafkaesque Koffka","3.2.5","0","s","NA","h","NA","NA","s","476","NA","23367","NA","NA","476","2","legacy","1024","2","48000","-16","experiment","SSHSS","2","even","28500","NA","NA","93183","NA","NA","157648","156576","5122","NA","NA","157763","158241","157638","157762","5100","Flanker Task","71","39327","75","yes","1024"
"94.7368421053","94.7368421053","525.263157895","525.263157895","black","legacy","legacy","legacy","0","Incongruent","uniform","1","undefined","1","h","0","0","0","75","75","0","75","75","0","0","0","75","75","75","75","0","Thu Sep  6 14:32:57 2018","1500","The main experiment item","yes","FlankerTask.osexp","/Users/emmaleemorgan/Desktop","no","mono","no","18","no","white","no","yes","768","legacy","75","75","/Users/emmaleemorgan/Desktop/EM subject-2, f, 47.csv","legacy","Kafkaesque Koffka","3.2.5","0","h","NA","h","NA","NA","h","593","NA","23367","NA","NA","593","2","legacy","1024","2","48000","-16","experiment","SSHSS","2","even","28500","NA","NA","158254","NA","NA","159839","158765","5122","NA","NA","159955","160550","159828","159955","5100","Flanker Task","72","39920","76","yes","1024"
"94.8051948052","94.8051948052","524.155844156","524.155844156","black","legacy","legacy","legacy","0","Congruent","uniform","1","undefined","1","s","0","0","0","76","76","0","76","76","0","0","0","76","76","76","76","0","Thu Sep  6 14:32:57 2018","1500","The main experiment item","yes","FlankerTask.osexp","/Users/emmaleemorgan/Desktop","no","mono","no","18","no","white","no","yes","768","legacy","76","76","/Users/emmaleemorgan/Desktop/EM subject-2, f, 47.csv","legacy","Kafkaesque Koffka","3.2.5","0","s","NA","h","NA","NA","s","440","NA","23367","NA","NA","440","2","legacy","1024","2","48000","-16","experiment","SSSSS","2","even","28500","NA","NA","158254","NA","NA","161634","160563","5122","NA","NA","161747","162189","161624","161746","5100","Flanker Task","73","40360","77","yes","1024"
"94.8717948718","94.8717948718","524.474358974","524.474358974","black","legacy","legacy","legacy","0","Incongruent","uniform","1","undefined","1","s","0","0","0","77","77","0","77","77","0","0","0","77","77","77","77","0","Thu Sep  6 14:32:57 2018","1500","The main experiment item","yes","FlankerTask.osexp","/Users/emmaleemorgan/Desktop","no","mono","no","18","no","white","no","yes","768","legacy","77","77","/Users/emmaleemorgan/Desktop/EM subject-2, f, 47.csv","legacy","Kafkaesque Koffka","3.2.5","0","s","NA","h","NA","NA","s","549","NA","23367","NA","NA","549","2","legacy","1024","2","48000","-16","experiment","HHSHH","2","even","28500","NA","NA","158254","NA","NA","163275","162202","5122","NA","NA","163385","163937","163265","163385","5100","Flanker Task","74","40909","78","yes","1024"
"94.9367088608","94.9367088608","525.075949367","525.075949367","black","legacy","legacy","legacy","0","Incongruent","uniform","1","undefined","1","h","0","0","0","78","78","0","78","78","0","0","0","78","78","78","78","0","Thu Sep  6 14:32:57 2018","1500","The main experiment item","yes","FlankerTask.osexp","/Users/emmaleemorgan/Desktop","no","mono","no","18","no","white","no","yes","768","legacy","78","78","/Users/emmaleemorgan/Desktop/EM subject-2, f, 47.csv","legacy","Kafkaesque Koffka","3.2.5","0","h","NA","h","NA","NA","h","572","NA","23367","NA","NA","572","2","legacy","1024","2","48000","-16","experiment","SSHSS","2","even","28500","NA","NA","158254","NA","NA","165019","163948","5122","NA","NA","165129","165703","165009","165129","5100","Flanker Task","75","41481","79","yes","1024"
"95","95","524.3","524.3","black","legacy","legacy","legacy","0","Incongruent","uniform","1","undefined","1","h","0","0","0","79","79","0","79","79","0","0","0","79","79","79","79","0","Thu Sep  6 14:32:57 2018","1500","The main experiment item","yes","FlankerTask.osexp","/Users/emmaleemorgan/Desktop","no","mono","no","18","no","white","no","yes","768","legacy","79","79","/Users/emmaleemorgan/Desktop/EM subject-2, f, 47.csv","legacy","Kafkaesque Koffka","3.2.5","0","h","NA","h","NA","NA","h","463","NA","23367","NA","NA","463","2","legacy","1024","2","48000","-16","experiment","SSHSS","2","even","28500","NA","NA","158254","NA","NA","166785","165716","5122","NA","NA","166897","167362","166775","166896","5100","Flanker Task","76","41944","80","yes","1024"
"95.0617283951","95.0617283951","528.580246914","528.580246914","black","legacy","legacy","legacy","0","Incongruent","uniform","1","undefined","1","s","0","0","0","80","80","0","80","80","0","0","0","80","80","80","80","0","Thu Sep  6 14:32:57 2018","600","The main experiment item","yes","FlankerTask.osexp","/Users/emmaleemorgan/Desktop","no","mono","no","18","no","white","no","yes","768","legacy","0","79","/Users/emmaleemorgan/Desktop/EM subject-2, f, 47.csv","legacy","Kafkaesque Koffka","3.2.5","0","s","NA","h","s","NA","s","871","NA","23367","22714","NA","871","2","legacy","1024","2","48000","-16","experiment","HHSHH","2","even","28500","191115","NA","158254","NA","NA","191176","167375","5122","168400","NA","191289","192162","191166","191289","5100","Flanker Task","77","42815","81","yes","1024"
"95.1219512195","95.1219512195","538.280487805","538.280487805","black","legacy","legacy","legacy","0","Incongruent","uniform","1","undefined","1","h","0","0","0","81","81","0","81","81","0","0","0","81","81","81","81","0","Thu Sep  6 14:32:57 2018","600","The main experiment item","yes","FlankerTask.osexp","/Users/emmaleemorgan/Desktop","no","mono","no","18","no","white","no","yes","768","legacy","1","79","/Users/emmaleemorgan/Desktop/EM subject-2, f, 47.csv","legacy","Kafkaesque Koffka","3.2.5","0","h","NA","h","s","NA","h","1324","NA","23367","22714","NA","1324","2","legacy","1024","2","48000","-16","experiment","SSHSS","2","even","28500","191115","NA","158254","192175","NA","193758","192686","5122","168400","NA","193870","195196","193748","193870","5100","Flanker Task","78","44139","82","yes","1024"
"95.1807228916","95.1807228916","537.915662651","537.915662651","black","legacy","legacy","legacy","0","Congruent","uniform","1","undefined","1","h","0","0","0","82","82","0","82","82","0","0","0","82","82","82","82","0","Thu Sep  6 14:32:57 2018","600","The main experiment item","yes","FlankerTask.osexp","/Users/emmaleemorgan/Desktop","no","mono","no","18","no","white","no","yes","768","legacy","2","79","/Users/emmaleemorgan/Desktop/EM subject-2, f, 47.csv","legacy","Kafkaesque Koffka","3.2.5","0","h","NA","h","s","NA","h","508","NA","23367","22714","NA","508","2","legacy","1024","2","48000","-16","experiment","HHHHH","2","even","28500","191115","NA","158254","195207","NA","196788","195717","5122","168400","NA","196898","197408","196777","196898","5100","Flanker Task","79","44647","83","yes","1024"
"95.2380952381","95.2380952381","538.333333333","538.333333333","black","legacy","legacy","legacy","0","Incongruent","uniform","1","undefined","1","s","0","0","0","83","83","0","83","83","0","0","0","83","83","83","83","0","Thu Sep  6 14:32:57 2018","600","The main experiment item","yes","FlankerTask.osexp","/Users/emmaleemorgan/Desktop","no","mono","no","18","no","white","no","yes","768","legacy","3","79","/Users/emmaleemorgan/Desktop/EM subject-2, f, 47.csv","legacy","Kafkaesque Koffka","3.2.5","0","s","NA","h","s","NA","s","573","NA","23367","22714","NA","573","2","legacy","1024","2","48000","-16","experiment","HHSHH","2","even","28500","191115","NA","158254","195207","NA","198492","197421","5122","168400","NA","198605","199180","198482","198604","5100","Flanker Task","80","45220","84","yes","1024"
"94.1176470588","94.1176470588","536.941176471","536.941176471","black","legacy","legacy","legacy","0","Congruent","uniform","0","undefined","0","s","0","0","0","84","84","0","84","84","0","0","0","84","84","84","84","0","Thu Sep  6 14:32:57 2018","600","The main experiment item","yes","FlankerTask.osexp","/Users/emmaleemorgan/Desktop","no","mono","no","18","no","white","no","yes","768","legacy","4","79","/Users/emmaleemorgan/Desktop/EM subject-2, f, 47.csv","legacy","Kafkaesque Koffka","3.2.5","0","h","NA","h","s","NA","h","420","NA","23367","22714","NA","420","2","legacy","1024","2","48000","-16","experiment","SSSSS","2","even","28500","191115","NA","158254","195207","NA","200264","199193","5122","168400","NA","200377","200799","200254","200377","5100","Flanker Task","80","45640","85","yes","1024"
"94.1860465116","94.1860465116","536.453488372","536.453488372","black","legacy","legacy","legacy","0","Congruent","uniform","1","undefined","1","s","0","0","0","85","85","0","85","85","0","0","0","85","85","85","85","0","Thu Sep  6 14:32:57 2018","600","The main experiment item","yes","FlankerTask.osexp","/Users/emmaleemorgan/Desktop","no","mono","no","18","no","white","no","yes","768","legacy","5","79","/Users/emmaleemorgan/Desktop/EM subject-2, f, 47.csv","legacy","Kafkaesque Koffka","3.2.5","0","s","NA","h","s","NA","s","495","NA","23367","22714","NA","495","2","legacy","1024","2","48000","-16","experiment","SSSSS","2","even","28500","191115","NA","200813","195207","NA","202395","201324","5122","168400","NA","202507","203004","202385","202507","5100","Flanker Task","81","46135","86","yes","1024"
"94.2528735632","94.2528735632","535.712643678","535.712643678","black","legacy","legacy","legacy","0","Incongruent","uniform","1","undefined","1","s","0","0","0","86","86","0","86","86","0","0","0","86","86","86","86","0","Thu Sep  6 14:32:57 2018","600","The main experiment item","yes","FlankerTask.osexp","/Users/emmaleemorgan/Desktop","no","mono","no","18","no","white","no","yes","768","legacy","6","79","/Users/emmaleemorgan/Desktop/EM subject-2, f, 47.csv","legacy","Kafkaesque Koffka","3.2.5","0","s","NA","h","s","NA","s","472","NA","23367","22714","NA","472","2","legacy","1024","2","48000","-16","experiment","HHSHH","2","even","28500","191115","NA","200813","195207","NA","204089","203017","5122","168400","NA","204201","204675","204079","204201","5100","Flanker Task","82","46607","87","yes","1024"
"94.3181818182","94.3181818182","535.829545455","535.829545455","black","legacy","legacy","legacy","0","Incongruent","uniform","1","undefined","1","h","0","0","0","87","87","0","87","87","0","0","0","87","87","87","87","0","Thu Sep  6 14:32:57 2018","600","The main experiment item","yes","FlankerTask.osexp","/Users/emmaleemorgan/Desktop","no","mono","no","18","no","white","no","yes","768","legacy","7","79","/Users/emmaleemorgan/Desktop/EM subject-2, f, 47.csv","legacy","Kafkaesque Koffka","3.2.5","0","h","NA","h","s","NA","h","546","NA","23367","22714","NA","546","2","legacy","1024","2","48000","-16","experiment","SSHSS","2","even","28500","191115","NA","200813","195207","NA","205759","204688","5122","168400","NA","205872","206420","205749","205872","5100","Flanker Task","83","47153","88","yes","1024"
"94.3820224719","94.3820224719","535.134831461","535.134831461","black","legacy","legacy","legacy","0","Congruent","uniform","1","undefined","1","s","0","0","0","88","88","0","88","88","0","0","0","88","88","88","88","0","Thu Sep  6 14:32:57 2018","600","The main experiment item","yes","FlankerTask.osexp","/Users/emmaleemorgan/Desktop","no","mono","no","18","no","white","no","yes","768","legacy","8","79","/Users/emmaleemorgan/Desktop/EM subject-2, f, 47.csv","legacy","Kafkaesque Koffka","3.2.5","0","s","NA","h","s","NA","s","474","NA","23367","22714","NA","474","2","legacy","1024","2","48000","-16","experiment","SSSSS","2","even","28500","191115","NA","200813","195207","NA","207505","206433","5122","168400","NA","207617","208093","207495","207617","5100","Flanker Task","84","47627","89","yes","1024"
"94.4444444444","94.4444444444","536.477777778","536.477777778","black","legacy","legacy","legacy","0","Incongruent","uniform","1","undefined","1","s","0","0","0","89","89","0","89","89","0","0","0","89","89","89","89","0","Thu Sep  6 14:32:57 2018","600","The main experiment item","yes","FlankerTask.osexp","/Users/emmaleemorgan/Desktop","no","mono","no","18","no","white","no","yes","768","legacy","9","79","/Users/emmaleemorgan/Desktop/EM subject-2, f, 47.csv","legacy","Kafkaesque Koffka","3.2.5","0","s","NA","h","s","NA","s","656","NA","23367","22714","NA","656","2","legacy","1024","2","48000","-16","experiment","HHSHH","2","even","28500","191115","NA","200813","195207","NA","209176","208105","5122","168400","NA","209286","209944","209166","209286","5100","Flanker Task","85","48283","90","yes","1024"
"94.5054945055","94.5054945055","535.087912088","535.087912088","black","legacy","legacy","legacy","0","Congruent","uniform","1","undefined","1","h","0","0","0","90","90","0","90","90","0","0","0","90","90","90","90","0","Thu Sep  6 14:32:57 2018","600","The main experiment item","yes","FlankerTask.osexp","/Users/emmaleemorgan/Desktop","no","mono","no","18","no","white","no","yes","768","legacy","10","79","/Users/emmaleemorgan/Desktop/EM subject-2, f, 47.csv","legacy","Kafkaesque Koffka","3.2.5","0","h","NA","h","s","NA","h","410","NA","23367","22714","NA","410","2","legacy","1024","2","48000","-16","experiment","HHHHH","2","even","28500","191115","NA","200813","209957","NA","211541","210469","5122","168400","NA","211654","212066","211530","211654","5100","Flanker Task","86","48693","91","yes","1024"
"94.5652173913","94.5652173913","534.206521739","534.206521739","black","legacy","legacy","legacy","0","Congruent","uniform","1","undefined","1","h","0","0","0","91","91","0","91","91","0","0","0","91","91","91","91","0","Thu Sep  6 14:32:57 2018","600","The main experiment item","yes","FlankerTask.osexp","/Users/emmaleemorgan/Desktop","no","mono","no","18","no","white","no","yes","768","legacy","11","79","/Users/emmaleemorgan/Desktop/EM subject-2, f, 47.csv","legacy","Kafkaesque Koffka","3.2.5","0","h","NA","h","s","NA","h","454","NA","23367","22714","NA","454","2","legacy","1024","2","48000","-16","experiment","HHHHH","2","even","28500","191115","NA","200813","209957","NA","213150","212078","5122","168400","NA","213262","213718","213140","213262","5100","Flanker Task","87","49147","92","yes","1024"
"94.623655914","94.623655914","535.129032258","535.129032258","black","legacy","legacy","legacy","0","Incongruent","uniform","1","undefined","1","h","0","0","0","92","92","0","92","92","0","0","0","92","92","92","92","0","Thu Sep  6 14:32:57 2018","600","The main experiment item","yes","FlankerTask.osexp","/Users/emmaleemorgan/Desktop","no","mono","no","18","no","white","no","yes","768","legacy","12","79","/Users/emmaleemorgan/Desktop/EM subject-2, f, 47.csv","legacy","Kafkaesque Koffka","3.2.5","0","h","NA","h","s","NA","h","620","NA","23367","22714","NA","620","2","legacy","1024","2","48000","-16","experiment","SSHSS","2","even","28500","191115","NA","200813","209957","NA","214802","213731","5122","168400","NA","214916","215538","214792","214916","5100","Flanker Task","88","49767","93","yes","1024"
"94.6808510638","94.6808510638","533.819148936","533.819148936","black","legacy","legacy","legacy","0","Congruent","uniform","1","undefined","1","h","0","0","0","93","93","0","93","93","0","0","0","93","93","93","93","0","Thu Sep  6 14:32:57 2018","600","The main experiment item","yes","FlankerTask.osexp","/Users/emmaleemorgan/Desktop","no","mono","no","18","no","white","no","yes","768","legacy","13","79","/Users/emmaleemorgan/Desktop/EM subject-2, f, 47.csv","legacy","Kafkaesque Koffka","3.2.5","0","h","NA","h","s","NA","h","412","NA","23367","22714","NA","412","2","legacy","1024","2","48000","-16","experiment","HHHHH","2","even","28500","191115","NA","200813","215551","NA","217136","216062","5122","168400","NA","217249","217663","217126","217249","5100","Flanker Task","89","50179","94","yes","1024"
"93.6842105263","93.6842105263","533.315789474","533.315789474","black","legacy","legacy","legacy","0","Incongruent","uniform","0","undefined","0","h","0","0","0","94","94","0","94","94","0","0","0","94","94","94","94","0","Thu Sep  6 14:32:57 2018","600","The main experiment item","yes","FlankerTask.osexp","/Users/emmaleemorgan/Desktop","no","mono","no","18","no","white","no","yes","768","legacy","14","79","/Users/emmaleemorgan/Desktop/EM subject-2, f, 47.csv","legacy","Kafkaesque Koffka","3.2.5","0","s","NA","h","s","NA","s","486","NA","23367","22714","NA","486","2","legacy","1024","2","48000","-16","experiment","SSHSS","2","even","28500","191115","NA","200813","215551","NA","218746","217676","5122","168400","NA","218858","219346","218736","218858","5100","Flanker Task","89","50665","95","yes","1024"
"93.75","93.75","533.28125","533.28125","black","legacy","legacy","legacy","0","Congruent","uniform","1","undefined","1","s","0","0","0","95","95","0","95","95","0","0","0","95","95","95","95","0","Thu Sep  6 14:32:57 2018","600","The main experiment item","yes","FlankerTask.osexp","/Users/emmaleemorgan/Desktop","no","mono","no","18","no","white","no","yes","768","legacy","15","79","/Users/emmaleemorgan/Desktop/EM subject-2, f, 47.csv","legacy","Kafkaesque Koffka","3.2.5","0","s","NA","h","s","NA","s","530","NA","23367","22714","NA","530","2","legacy","1024","2","48000","-16","experiment","SSSSS","2","even","28500","191115","NA","219359","215551","NA","220944","219872","5122","168400","NA","221057","221589","220934","221057","5100","Flanker Task","90","51195","96","yes","1024"
"93.8144329897","93.8144329897","533.319587629","533.319587629","black","legacy","legacy","legacy","0","Incongruent","uniform","1","undefined","1","s","0","0","0","96","96","0","96","96","0","0","0","96","96","96","96","0","Thu Sep  6 14:32:57 2018","600","The main experiment item","yes","FlankerTask.osexp","/Users/emmaleemorgan/Desktop","no","mono","no","18","no","white","no","yes","768","legacy","16","79","/Users/emmaleemorgan/Desktop/EM subject-2, f, 47.csv","legacy","Kafkaesque Koffka","3.2.5","0","s","NA","h","s","NA","s","537","NA","23367","22714","NA","537","2","legacy","1024","2","48000","-16","experiment","HHSHH","2","even","28500","191115","NA","219359","215551","NA","222672","221601","5122","168400","NA","222784","223322","222661","222784","5100","Flanker Task","91","51732","97","yes","1024"
"93.8775510204","93.8775510204","533.336734694","533.336734694","black","legacy","legacy","legacy","0","Incongruent","uniform","1","undefined","1","h","0","0","0","97","97","0","97","97","0","0","0","97","97","97","97","0","Thu Sep  6 14:32:57 2018","600","The main experiment item","yes","FlankerTask.osexp","/Users/emmaleemorgan/Desktop","no","mono","no","18","no","white","no","yes","768","legacy","17","79","/Users/emmaleemorgan/Desktop/EM subject-2, f, 47.csv","legacy","Kafkaesque Koffka","3.2.5","0","h","NA","h","s","NA","h","535","NA","23367","22714","NA","535","2","legacy","1024","2","48000","-16","experiment","SSHSS","2","even","28500","191115","NA","219359","215551","NA","224402","223335","5122","168400","NA","224513","225050","224392","224513","5100","Flanker Task","92","52267","98","yes","1024"
"93.9393939394","93.9393939394","532.96969697","532.96969697","black","legacy","legacy","legacy","0","Congruent","uniform","1","undefined","1","s","0","0","0","98","98","0","98","98","0","0","0","98","98","98","98","0","Thu Sep  6 14:32:57 2018","600","The main experiment item","yes","FlankerTask.osexp","/Users/emmaleemorgan/Desktop","no","mono","no","18","no","white","no","yes","768","legacy","18","79","/Users/emmaleemorgan/Desktop/EM subject-2, f, 47.csv","legacy","Kafkaesque Koffka","3.2.5","0","s","NA","h","s","NA","s","497","NA","23367","22714","NA","497","2","legacy","1024","2","48000","-16","experiment","SSSSS","2","even","28500","191115","NA","219359","215551","NA","226134","225063","5122","168400","NA","226248","226747","226124","226248","5100","Flanker Task","93","52764","99","yes","1024"
"94","94","532.21","532.21","black","legacy","legacy","legacy","0","Incongruent","uniform","1","undefined","1","s","0","0","0","99","99","0","99","99","0","0","0","99","99","99","99","0","Thu Sep  6 14:32:57 2018","600","The main experiment item","yes","FlankerTask.osexp","/Users/emmaleemorgan/Desktop","no","mono","no","18","no","white","no","yes","768","legacy","19","79","/Users/emmaleemorgan/Desktop/EM subject-2, f, 47.csv","legacy","Kafkaesque Koffka","3.2.5","0","s","NA","h","s","NA","s","457","NA","23367","22714","NA","457","2","legacy","1024","2","48000","-16","experiment","HHSHH","2","even","28500","191115","NA","219359","215551","NA","227830","226759","5122","168400","NA","227943","228402","227820","227943","5100","Flanker Task","94","53221","100","yes","1024"
"94.0594059406","94.0594059406","531.910891089","531.910891089","black","legacy","legacy","legacy","0","Incongruent","uniform","1","undefined","1","h","0","0","0","100","100","0","100","100","0","0","0","100","100","100","100","0","Thu Sep  6 14:32:57 2018","600","The main experiment item","yes","FlankerTask.osexp","/Users/emmaleemorgan/Desktop","no","mono","no","18","no","white","no","yes","768","legacy","20","79","/Users/emmaleemorgan/Desktop/EM subject-2, f, 47.csv","legacy","Kafkaesque Koffka","3.2.5","0","h","NA","h","s","NA","h","502","NA","23367","22714","NA","502","2","legacy","1024","2","48000","-16","experiment","SSHSS","2","even","28500","191115","NA","219359","215551","NA","229490","228415","5122","168400","NA","229603","230107","229478","229603","5100","Flanker Task","95","53723","101","yes","1024"
"94.1176470588","94.1176470588","531.852941176","531.852941176","black","legacy","legacy","legacy","0","Incongruent","uniform","1","undefined","1","s","0","0","0","101","101","0","101","101","0","0","0","101","101","101","101","0","Thu Sep  6 14:32:57 2018","600","The main experiment item","yes","FlankerTask.osexp","/Users/emmaleemorgan/Desktop","no","mono","no","18","no","white","no","yes","768","legacy","21","79","/Users/emmaleemorgan/Desktop/EM subject-2, f, 47.csv","legacy","Kafkaesque Koffka","3.2.5","0","s","NA","h","s","NA","s","526","NA","23367","22714","NA","526","2","legacy","1024","2","48000","-16","experiment","HHSHH","2","even","28500","191115","NA","219359","215551","NA","231194","230121","5122","168400","NA","231309","231837","231183","231308","5100","Flanker Task","96","54249","102","yes","1024"
"94.1747572816","94.1747572816","531.126213592","531.126213592","black","legacy","legacy","legacy","0","Incongruent","uniform","1","undefined","1","s","0","0","0","102","102","0","102","102","0","0","0","102","102","102","102","0","Thu Sep  6 14:32:57 2018","600","The main experiment item","yes","FlankerTask.osexp","/Users/emmaleemorgan/Desktop","no","mono","no","18","no","white","no","yes","768","legacy","22","79","/Users/emmaleemorgan/Desktop/EM subject-2, f, 47.csv","legacy","Kafkaesque Koffka","3.2.5","0","s","NA","h","s","NA","s","457","NA","23367","22714","NA","457","2","legacy","1024","2","48000","-16","experiment","HHSHH","2","even","28500","191115","NA","219359","215551","NA","232935","231850","5122","168400","NA","233047","233506","232924","233047","5100","Flanker Task","97","54706","103","yes","1024"
"94.2307692308","94.2307692308","530.067307692","530.067307692","black","legacy","legacy","legacy","0","Congruent","uniform","1","undefined","1","s","0","0","0","103","103","0","103","103","0","0","0","103","103","103","103","0","Thu Sep  6 14:32:57 2018","600","The main experiment item","yes","FlankerTask.osexp","/Users/emmaleemorgan/Desktop","no","mono","no","18","no","white","no","yes","768","legacy","23","79","/Users/emmaleemorgan/Desktop/EM subject-2, f, 47.csv","legacy","Kafkaesque Koffka","3.2.5","0","s","NA","h","s","NA","s","421","NA","23367","22714","NA","421","2","legacy","1024","2","48000","-16","experiment","SSSSS","2","even","28500","191115","NA","219359","215551","NA","234591","233519","5122","168400","NA","234704","235127","234581","234703","5100","Flanker Task","98","55127","104","yes","1024"
"94.2857142857","94.2857142857","529.238095238","529.238095238","black","legacy","legacy","legacy","0","Incongruent","uniform","1","undefined","1","s","0","0","0","104","104","0","104","104","0","0","0","104","104","104","104","0","Thu Sep  6 14:32:57 2018","600","The main experiment item","yes","FlankerTask.osexp","/Users/emmaleemorgan/Desktop","no","mono","no","18","no","white","no","yes","768","legacy","24","79","/Users/emmaleemorgan/Desktop/EM subject-2, f, 47.csv","legacy","Kafkaesque Koffka","3.2.5","0","s","NA","h","s","NA","s","443","NA","23367","22714","NA","443","2","legacy","1024","2","48000","-16","experiment","HHSHH","2","even","28500","191115","NA","219359","215551","NA","236212","235140","5122","168400","NA","236325","236770","236201","236325","5100","Flanker Task","99","55570","105","yes","1024"
"94.3396226415","94.3396226415","528.481132075","528.481132075","black","legacy","legacy","legacy","0","Congruent","uniform","1","undefined","1","h","0","0","0","105","105","0","105","105","0","0","0","105","105","105","105","0","Thu Sep  6 14:32:57 2018","600","The main experiment item","yes","FlankerTask.osexp","/Users/emmaleemorgan/Desktop","no","mono","no","18","no","white","no","yes","768","legacy","25","79","/Users/emmaleemorgan/Desktop/EM subject-2, f, 47.csv","legacy","Kafkaesque Koffka","3.2.5","0","h","NA","h","s","NA","h","449","NA","23367","22714","NA","449","2","legacy","1024","2","48000","-16","experiment","HHHHH","2","even","28500","191115","NA","219359","215551","NA","237855","236783","5122","168400","NA","237967","238418","237845","237967","5100","Flanker Task","100","56019","106","yes","1024"
"94.3925233645","94.3925233645","527.579439252","527.579439252","black","legacy","legacy","legacy","0","Incongruent","uniform","1","undefined","1","h","0","0","0","106","106","0","106","106","0","0","0","106","106","106","106","0","Thu Sep  6 14:32:57 2018","600","The main experiment item","yes","FlankerTask.osexp","/Users/emmaleemorgan/Desktop","no","mono","no","18","no","white","no","yes","768","legacy","26","79","/Users/emmaleemorgan/Desktop/EM subject-2, f, 47.csv","legacy","Kafkaesque Koffka","3.2.5","0","h","NA","h","s","NA","h","432","NA","23367","22714","NA","432","2","legacy","1024","2","48000","-16","experiment","SSHSS","2","even","28500","191115","NA","219359","215551","NA","239505","238432","5122","168400","NA","239617","240051","239495","239617","5100","Flanker Task","101","56451","107","yes","1024"
"94.4444444444","94.4444444444","527.527777778","527.527777778","black","legacy","legacy","legacy","0","Incongruent","uniform","1","undefined","1","s","0","0","0","107","107","0","107","107","0","0","0","107","107","107","107","0","Thu Sep  6 14:32:57 2018","600","The main experiment item","yes","FlankerTask.osexp","/Users/emmaleemorgan/Desktop","no","mono","no","18","no","white","no","yes","768","legacy","27","79","/Users/emmaleemorgan/Desktop/EM subject-2, f, 47.csv","legacy","Kafkaesque Koffka","3.2.5","0","s","NA","h","s","NA","s","522","NA","23367","22714","NA","522","2","legacy","1024","2","48000","-16","experiment","HHSHH","2","even","28500","191115","NA","219359","215551","NA","241132","240064","5122","168400","NA","241244","241768","241122","241244","5100","Flanker Task","102","56973","108","yes","1024"
"94.495412844","94.495412844","526.752293578","526.752293578","black","legacy","legacy","legacy","0","Congruent","uniform","1","undefined","1","s","0","0","0","108","108","0","108","108","0","0","0","108","108","108","108","0","Thu Sep  6 14:32:57 2018","600","The main experiment item","yes","FlankerTask.osexp","/Users/emmaleemorgan/Desktop","no","mono","no","18","no","white","no","yes","768","legacy","28","79","/Users/emmaleemorgan/Desktop/EM subject-2, f, 47.csv","legacy","Kafkaesque Koffka","3.2.5","0","s","NA","h","s","NA","s","443","NA","23367","22714","NA","443","2","legacy","1024","2","48000","-16","experiment","SSSSS","2","even","28500","191115","NA","219359","215551","NA","242849","241782","5122","168400","NA","242959","243404","242839","242959","5100","Flanker Task","103","57416","109","yes","1024"
"94.5454545455","94.5454545455","526.509090909","526.509090909","black","legacy","legacy","legacy","0","Congruent","uniform","1","undefined","1","h","0","0","0","109","109","0","109","109","0","0","0","109","109","109","109","0","Thu Sep  6 14:32:57 2018","600","The main experiment item","yes","FlankerTask.osexp","/Users/emmaleemorgan/Desktop","no","mono","no","18","no","white","no","yes","768","legacy","29","79","/Users/emmaleemorgan/Desktop/EM subject-2, f, 47.csv","legacy","Kafkaesque Koffka","3.2.5","0","h","NA","h","s","NA","h","500","NA","23367","22714","NA","500","2","legacy","1024","2","48000","-16","experiment","HHHHH","2","even","28500","191115","NA","219359","215551","NA","244485","243417","5122","168400","NA","244598","245100","244475","244598","5100","Flanker Task","104","57916","110","yes","1024"
"94.5945945946","94.5945945946","526.837837838","526.837837838","black","legacy","legacy","legacy","0","Incongruent","uniform","1","undefined","1","s","0","0","0","110","110","0","110","110","0","0","0","110","110","110","110","0","Thu Sep  6 14:32:57 2018","600","The main experiment item","yes","FlankerTask.osexp","/Users/emmaleemorgan/Desktop","no","mono","no","18","no","white","no","yes","768","legacy","30","79","/Users/emmaleemorgan/Desktop/EM subject-2, f, 47.csv","legacy","Kafkaesque Koffka","3.2.5","0","s","NA","h","s","NA","s","563","NA","23367","22714","NA","563","2","legacy","1024","2","48000","-16","experiment","HHSHH","2","even","28500","191115","NA","219359","215551","NA","246181","245113","5122","168400","NA","246293","246858","246171","246293","5100","Flanker Task","105","58479","111","yes","1024"
"94.6428571429","94.6428571429","525.946428571","525.946428571","black","legacy","legacy","legacy","0","Congruent","uniform","1","undefined","1","h","0","0","0","111","111","0","111","111","0","0","0","111","111","111","111","0","Thu Sep  6 14:32:57 2018","600","The main experiment item","yes","FlankerTask.osexp","/Users/emmaleemorgan/Desktop","no","mono","no","18","no","white","no","yes","768","legacy","31","79","/Users/emmaleemorgan/Desktop/EM subject-2, f, 47.csv","legacy","Kafkaesque Koffka","3.2.5","0","h","NA","h","s","NA","h","427","NA","23367","22714","NA","427","2","legacy","1024","2","48000","-16","experiment","HHHHH","2","even","28500","191115","NA","219359","215551","NA","247942","246873","5122","168400","NA","248053","248482","247931","248053","5100","Flanker Task","106","58906","112","yes","1024"
"94.6902654867","94.6902654867","525.495575221","525.495575221","black","legacy","legacy","legacy","0","Congruent","uniform","1","undefined","1","h","0","0","0","112","112","0","112","112","0","0","0","112","112","112","112","0","Thu Sep  6 14:32:57 2018","600","The main experiment item","yes","FlankerTask.osexp","/Users/emmaleemorgan/Desktop","no","mono","no","18","no","white","no","yes","768","legacy","32","79","/Users/emmaleemorgan/Desktop/EM subject-2, f, 47.csv","legacy","Kafkaesque Koffka","3.2.5","0","h","NA","h","s","NA","h","475","NA","23367","22714","NA","475","2","legacy","1024","2","48000","-16","experiment","HHHHH","2","even","28500","191115","NA","219359","215551","NA","249563","248495","5122","168400","NA","249676","250153","249553","249676","5100","Flanker Task","107","59381","113","yes","1024"
"94.7368421053","94.7368421053","525.561403509","525.561403509","black","legacy","legacy","legacy","0","Incongruent","uniform","1","undefined","1","s","0","0","0","113","113","0","113","113","0","0","0","113","113","113","113","0","Thu Sep  6 14:32:57 2018","600","The main experiment item","yes","FlankerTask.osexp","/Users/emmaleemorgan/Desktop","no","mono","no","18","no","white","no","yes","768","legacy","33","79","/Users/emmaleemorgan/Desktop/EM subject-2, f, 47.csv","legacy","Kafkaesque Koffka","3.2.5","0","s","NA","h","s","NA","s","533","NA","23367","22714","NA","533","2","legacy","1024","2","48000","-16","experiment","HHSHH","2","even","28500","191115","NA","219359","215551","NA","251234","250166","5122","168400","NA","251346","251881","251224","251346","5100","Flanker Task","108","59914","114","yes","1024"
"94.7826086957","94.7826086957","525.643478261","525.643478261","black","legacy","legacy","legacy","0","Congruent","uniform","1","undefined","1","h","0","0","0","114","114","0","114","114","0","0","0","114","114","114","114","0","Thu Sep  6 14:32:57 2018","600","The main experiment item","yes","FlankerTask.osexp","/Users/emmaleemorgan/Desktop","no","mono","no","18","no","white","no","yes","768","legacy","34","79","/Users/emmaleemorgan/Desktop/EM subject-2, f, 47.csv","legacy","Kafkaesque Koffka","3.2.5","0","h","NA","h","s","NA","h","535","NA","23367","22714","NA","535","2","legacy","1024","2","48000","-16","experiment","HHHHH","2","even","28500","191115","NA","219359","215551","NA","252978","251894","5122","168400","NA","253090","253627","252965","253090","5100","Flanker Task","109","60449","115","yes","1024"
"94.8275862069","94.8275862069","525.715517241","525.715517241","black","legacy","legacy","legacy","0","Incongruent","uniform","1","undefined","1","h","0","0","0","115","115","0","115","115","0","0","0","115","115","115","115","0","Thu Sep  6 14:32:57 2018","600","The main experiment item","yes","FlankerTask.osexp","/Users/emmaleemorgan/Desktop","no","mono","no","18","no","white","no","yes","768","legacy","35","79","/Users/emmaleemorgan/Desktop/EM subject-2, f, 47.csv","legacy","Kafkaesque Koffka","3.2.5","0","h","NA","h","s","NA","h","534","NA","23367","22714","NA","534","2","legacy","1024","2","48000","-16","experiment","SSHSS","2","even","28500","191115","NA","219359","215551","NA","254707","253639","5122","168400","NA","254819","255355","254696","254819","5100","Flanker Task","110","60983","116","yes","1024"
"94.8717948718","94.8717948718","525.401709402","525.401709402","black","legacy","legacy","legacy","0","Incongruent","uniform","1","undefined","1","h","0","0","0","116","116","0","116","116","0","0","0","116","116","116","116","0","Thu Sep  6 14:32:57 2018","600","The main experiment item","yes","FlankerTask.osexp","/Users/emmaleemorgan/Desktop","no","mono","no","18","no","white","no","yes","768","legacy","36","79","/Users/emmaleemorgan/Desktop/EM subject-2, f, 47.csv","legacy","Kafkaesque Koffka","3.2.5","0","h","NA","h","s","NA","h","489","NA","23367","22714","NA","489","2","legacy","1024","2","48000","-16","experiment","SSHSS","2","even","28500","191115","NA","219359","215551","NA","256436","255366","5122","168400","NA","256549","257040","256426","256549","5100","Flanker Task","111","61472","117","yes","1024"
"94.9152542373","94.9152542373","525.610169492","525.610169492","black","legacy","legacy","legacy","0","Incongruent","uniform","1","undefined","1","h","0","0","0","117","117","0","117","117","0","0","0","117","117","117","117","0","Thu Sep  6 14:32:57 2018","600","The main experiment item","yes","FlankerTask.osexp","/Users/emmaleemorgan/Desktop","no","mono","no","18","no","white","no","yes","768","legacy","37","79","/Users/emmaleemorgan/Desktop/EM subject-2, f, 47.csv","legacy","Kafkaesque Koffka","3.2.5","0","h","NA","h","s","NA","h","550","NA","23367","22714","NA","550","2","legacy","1024","2","48000","-16","experiment","SSHSS","2","even","28500","191115","NA","219359","215551","NA","258125","257053","5122","168400","NA","258238","258790","258114","258238","5100","Flanker Task","112","62022","118","yes","1024"
"94.9579831933","94.9579831933","525.789915966","525.789915966","black","legacy","legacy","legacy","0","Congruent","uniform","1","undefined","1","h","0","0","0","118","118","0","118","118","0","0","0","118","118","118","118","0","Thu Sep  6 14:32:57 2018","600","The main experiment item","yes","FlankerTask.osexp","/Users/emmaleemorgan/Desktop","no","mono","no","18","no","white","no","yes","768","legacy","38","79","/Users/emmaleemorgan/Desktop/EM subject-2, f, 47.csv","legacy","Kafkaesque Koffka","3.2.5","0","h","NA","h","s","NA","h","547","NA","23367","22714","NA","547","2","legacy","1024","2","48000","-16","experiment","HHHHH","2","even","28500","191115","NA","219359","215551","NA","259874","258801","5122","168400","NA","259986","260535","259863","259986","5100","Flanker Task","113","62569","119","yes","1024"
"95","95","524.866666667","524.866666667","black","legacy","legacy","legacy","0","Congruent","uniform","1","undefined","1","h","0","0","0","119","119","0","119","119","0","0","0","119","119","119","119","0","Thu Sep  6 14:32:57 2018","600","The main experiment item","yes","FlankerTask.osexp","/Users/emmaleemorgan/Desktop","no","mono","no","18","no","white","no","yes","768","legacy","39","79","/Users/emmaleemorgan/Desktop/EM subject-2, f, 47.csv","legacy","Kafkaesque Koffka","3.2.5","0","h","NA","h","s","NA","h","415","NA","23367","22714","NA","415","2","legacy","1024","2","48000","-16","experiment","HHHHH","2","even","28500","191115","NA","219359","215551","NA","261621","260549","5122","168400","NA","261733","262150","261611","261733","5100","Flanker Task","114","62984","120","yes","1024"
"95.041322314","95.041322314","524.256198347","524.256198347","black","legacy","legacy","legacy","0","Incongruent","uniform","1","undefined","1","s","0","0","0","120","120","0","120","120","0","0","0","120","120","120","120","0","Thu Sep  6 14:32:57 2018","600","The main experiment item","yes","FlankerTask.osexp","/Users/emmaleemorgan/Desktop","no","mono","no","18","no","white","no","yes","768","legacy","40","79","/Users/emmaleemorgan/Desktop/EM subject-2, f, 47.csv","legacy","Kafkaesque Koffka","3.2.5","0","s","NA","h","s","NA","s","451","NA","23367","22714","NA","451","2","legacy","1024","2","48000","-16","experiment","HHSHH","2","even","28500","191115","NA","219359","215551","NA","263235","262163","5122","168400","NA","263348","263801","263225","263348","5100","Flanker Task","115","63435","121","yes","1024"
"95.0819672131","95.0819672131","524.098360656","524.098360656","black","legacy","legacy","legacy","0","Congruent","uniform","1","undefined","1","h","0","0","0","121","121","0","121","121","0","0","0","121","121","121","121","0","Thu Sep  6 14:32:57 2018","600","The main experiment item","yes","FlankerTask.osexp","/Users/emmaleemorgan/Desktop","no","mono","no","18","no","white","no","yes","768","legacy","41","79","/Users/emmaleemorgan/Desktop/EM subject-2, f, 47.csv","legacy","Kafkaesque Koffka","3.2.5","0","h","NA","h","s","NA","h","505","NA","23367","22714","NA","505","2","legacy","1024","2","48000","-16","experiment","HHHHH","2","even","28500","191115","NA","219359","215551","NA","264886","263813","5122","168400","NA","265000","265507","264876","265000","5100","Flanker Task","116","63940","122","yes","1024"
"95.1219512195","95.1219512195","524.089430894","524.089430894","black","legacy","legacy","legacy","0","Incongruent","uniform","1","undefined","1","h","0","0","0","122","122","0","122","122","0","0","0","122","122","122","122","0","Thu Sep  6 14:32:57 2018","600","The main experiment item","yes","FlankerTask.osexp","/Users/emmaleemorgan/Desktop","no","mono","no","18","no","white","no","yes","768","legacy","42","79","/Users/emmaleemorgan/Desktop/EM subject-2, f, 47.csv","legacy","Kafkaesque Koffka","3.2.5","0","h","NA","h","s","NA","h","523","NA","23367","22714","NA","523","2","legacy","1024","2","48000","-16","experiment","SSHSS","2","even","28500","191115","NA","219359","215551","NA","266587","265520","5122","168400","NA","266698","267223","266577","266698","5100","Flanker Task","117","64463","123","yes","1024"
