"acc","accuracy","average_response_time","avg_rt","background","bidi","canvas_backend","clock_backend","color_backend","compensation","condition","coordinates","correct","correct_Instructions1","correct_keyboard_response","correct_response","count_Block1","count_Block2","count_Block3","count_ErrorFeedback","count_Faster","count_Finish","count_Fixation","count_ISI","count_Instructions1","count_Instructions2","count_Instructions3","count_Sequence","count_Stimulus","count_experiment","count_keyboard_response","count_logger","datetime","deadline","description","disable_garbage_collection","experiment_file","experiment_path","font_bold","font_family","font_italic","font_size","font_underline","foreground","form_clicks","fullscreen","height","keyboard_backend","live_row","live_row_Block1","logfile","mouse_backend","opensesame_codename","opensesame_version","repeat_cycle","response","response_Finish","response_Instructions1","response_Instructions2","response_Instructions3","response_keyboard_response","response_time","response_time_Finish","response_time_Instructions1","response_time_Instructions2","response_time_Instructions3","response_time_keyboard_response","round_decimals","sampler_backend","sound_buf_size","sound_channels","sound_freq","sound_sample_size","start","stimulus","subject_nr","subject_parity","time_Block1","time_Block2","time_Block3","time_ErrorFeedback","time_Faster","time_Finish","time_Fixation","time_ISI","time_Instructions1","time_Instructions2","time_Instructions3","time_Sequence","time_Stimulus","time_experiment","time_keyboard_response","time_logger","title","total_correct","total_response_time","total_responses","uniform_coordinates","width"
"100","100","1023","1023","black","no","legacy","legacy","legacy","0","congruent","uniform","1","undefined","1","h","0","0","0","0","0","0","0","0","0","0","0","0","0","0","0","0","09/04/18 14:39:33","1500","The main experiment item","yes","FlankerTask.osexp","C:/Users/Anabel/Desktop","no","mono","no","18","no","white","no","yes","768","legacy","0","0","C:/Users/Anabel/Desktop/AWsubject-3.csv","legacy","Jazzy James","3.1.9","0","h","NA","s","NA","NA","h","1023","NA","40300","NA","NA","1023","2","legacy","1024","2","48000","-16","experiment","HHHHH","3","odd","41849","NA","NA","NA","NA","NA","41904","NA","1547","NA","NA","41903","42005","1543","42005","43029","Flanker Task","1","1023","1","yes","1024"
"100","100","781.5","781.5","black","no","legacy","legacy","legacy","0","incongruent","uniform","1","undefined","1","s","0","0","0","1","1","0","1","1","0","0","0","1","1","0","1","1","09/04/18 14:39:33","1500","The main experiment item","yes","FlankerTask.osexp","C:/Users/Anabel/Desktop","no","mono","no","18","no","white","no","yes","768","legacy","1","1","C:/Users/Anabel/Desktop/AWsubject-3.csv","legacy","Jazzy James","3.1.9","0","s","NA","s","NA","NA","s","540","NA","40300","NA","NA","540","2","legacy","1024","2","48000","-16","experiment","HHSHH","3","odd","41849","NA","NA","NA","NA","NA","44159","43107","1547","NA","NA","44157","44260","1543","44260","44801","Flanker Task","2","1563","2","yes","1024"
"100","100","713.666666667","713.666666667","black","no","legacy","legacy","legacy","0","congruent","uniform","1","undefined","1","h","0","0","0","2","2","0","2","2","0","0","0","2","2","0","2","2","09/04/18 14:39:33","1500","The main experiment item","yes","FlankerTask.osexp","C:/Users/Anabel/Desktop","no","mono","no","18","no","white","no","yes","768","legacy","2","2","C:/Users/Anabel/Desktop/AWsubject-3.csv","legacy","Jazzy James","3.1.9","0","h","NA","s","NA","NA","h","578","NA","40300","NA","NA","578","2","legacy","1024","2","48000","-16","experiment","HHHHH","3","odd","41849","NA","NA","NA","NA","NA","45887","44817","1547","NA","NA","45885","45989","1543","45989","46568","Flanker Task","3","2141","3","yes","1024"
"100","100","677.25","677.25","black","no","legacy","legacy","legacy","0","incongruent","uniform","1","undefined","1","s","0","0","0","3","3","0","3","3","0","0","0","3","3","0","3","3","09/04/18 14:39:33","1500","The main experiment item","yes","FlankerTask.osexp","C:/Users/Anabel/Desktop","no","mono","no","18","no","white","no","yes","768","legacy","3","3","C:/Users/Anabel/Desktop/AWsubject-3.csv","legacy","Jazzy James","3.1.9","0","s","NA","s","NA","NA","s","568","NA","40300","NA","NA","568","2","legacy","1024","2","48000","-16","experiment","HHSHH","3","odd","41849","NA","NA","NA","NA","NA","47655","46584","1547","NA","NA","47653","47757","1543","47757","48326","Flanker Task","4","2709","4","yes","1024"
"100","100","662.8","662.8","black","no","legacy","legacy","legacy","0","incongruent","uniform","1","undefined","1","h","0","0","0","4","4","0","4","4","0","0","0","4","4","0","4","4","09/04/18 14:39:33","1500","The main experiment item","yes","FlankerTask.osexp","C:/Users/Anabel/Desktop","no","mono","no","18","no","white","no","yes","768","legacy","4","4","C:/Users/Anabel/Desktop/AWsubject-3.csv","legacy","Jazzy James","3.1.9","0","h","NA","s","NA","NA","h","605","NA","40300","NA","NA","605","2","legacy","1024","2","48000","-16","experiment","SSHSS","3","odd","41849","NA","NA","NA","NA","NA","49461","48396","1547","NA","NA","49459","49563","1543","49563","50169","Flanker Task","5","3314","5","yes","1024"
"100","100","646.666666667","646.666666667","black","no","legacy","legacy","legacy","0","congruent","uniform","1","undefined","1","h","0","0","0","5","5","0","5","5","0","0","0","5","5","0","5","5","09/04/18 14:39:33","1500","The main experiment item","yes","FlankerTask.osexp","C:/Users/Anabel/Desktop","no","mono","no","18","no","white","no","yes","768","legacy","5","5","C:/Users/Anabel/Desktop/AWsubject-3.csv","legacy","Jazzy James","3.1.9","0","h","NA","s","NA","NA","h","566","NA","40300","NA","NA","566","2","legacy","1024","2","48000","-16","experiment","HHHHH","3","odd","41849","NA","NA","NA","NA","NA","51256","50184","1547","NA","NA","51254","51358","1543","51358","51925","Flanker Task","6","3880","6","yes","1024"
"100","100","619.142857143","619.142857143","black","no","legacy","legacy","legacy","0","incongruent","uniform","1","undefined","1","s","0","0","0","6","6","0","6","6","0","0","0","6","6","0","6","6","09/04/18 14:39:33","1500","The main experiment item","yes","FlankerTask.osexp","C:/Users/Anabel/Desktop","no","mono","no","18","no","white","no","yes","768","legacy","6","6","C:/Users/Anabel/Desktop/AWsubject-3.csv","legacy","Jazzy James","3.1.9","0","s","NA","s","NA","NA","s","454","NA","40300","NA","NA","454","2","legacy","1024","2","48000","-16","experiment","HHSHH","3","odd","41849","NA","NA","NA","NA","NA","53022","51950","1547","NA","NA","53020","53124","1543","53124","53579","Flanker Task","7","4334","7","yes","1024"
"100","100","632.25","632.25","black","no","legacy","legacy","legacy","0","incongruent","uniform","1","undefined","1","h","0","0","0","7","7","0","7","7","0","0","0","7","7","0","7","7","09/04/18 14:39:33","1500","The main experiment item","yes","FlankerTask.osexp","C:/Users/Anabel/Desktop","no","mono","no","18","no","white","no","yes","768","legacy","7","7","C:/Users/Anabel/Desktop/AWsubject-3.csv","legacy","Jazzy James","3.1.9","0","h","NA","s","NA","NA","h","724","NA","40300","NA","NA","724","2","legacy","1024","2","48000","-16","experiment","SSHSS","3","odd","41849","NA","NA","NA","NA","NA","54703","53630","1547","NA","NA","54701","54805","1543","54805","55529","Flanker Task","8","5058","8","yes","1024"
"100","100","609","609","black","no","legacy","legacy","legacy","0","congruent","uniform","1","undefined","1","s","0","0","0","8","8","0","8","8","0","0","0","8","8","0","8","8","09/04/18 14:39:33","1500","The main experiment item","yes","FlankerTask.osexp","C:/Users/Anabel/Desktop","no","mono","no","18","no","white","no","yes","768","legacy","8","8","C:/Users/Anabel/Desktop/AWsubject-3.csv","legacy","Jazzy James","3.1.9","0","s","NA","s","NA","NA","s","423","NA","40300","NA","NA","423","2","legacy","1024","2","48000","-16","experiment","SSSSS","3","odd","41849","NA","NA","NA","NA","NA","56636","55573","1547","NA","NA","56634","56738","1543","56738","57161","Flanker Task","9","5481","9","yes","1024"
"100","100","604.6","604.6","black","no","legacy","legacy","legacy","0","congruent","uniform","1","undefined","1","h","0","0","0","9","9","0","9","9","0","0","0","9","9","0","9","9","09/04/18 14:39:33","1500","The main experiment item","yes","FlankerTask.osexp","C:/Users/Anabel/Desktop","no","mono","no","18","no","white","no","yes","768","legacy","9","9","C:/Users/Anabel/Desktop/AWsubject-3.csv","legacy","Jazzy James","3.1.9","0","h","NA","s","NA","NA","h","565","NA","40300","NA","NA","565","2","legacy","1024","2","48000","-16","experiment","HHHHH","3","odd","41849","NA","NA","NA","NA","NA","58276","57207","1547","NA","NA","58274","58378","1543","58378","58944","Flanker Task","10","6046","10","yes","1024"
"100","100","600.545454545","600.545454545","black","no","legacy","legacy","legacy","0","congruent","uniform","1","undefined","1","s","0","0","0","10","10","0","10","10","0","0","0","10","10","0","10","10","09/04/18 14:39:33","1500","The main experiment item","yes","FlankerTask.osexp","C:/Users/Anabel/Desktop","no","mono","no","18","no","white","no","yes","768","legacy","10","10","C:/Users/Anabel/Desktop/AWsubject-3.csv","legacy","Jazzy James","3.1.9","0","s","NA","s","NA","NA","s","560","NA","40300","NA","NA","560","2","legacy","1024","2","48000","-16","experiment","SSSSS","3","odd","41849","NA","NA","NA","NA","NA","60058","58995","1547","NA","NA","60056","60160","1543","60160","60721","Flanker Task","11","6606","11","yes","1024"
"100","100","605.583333333","605.583333333","black","no","legacy","legacy","legacy","0","incongruent","uniform","1","undefined","1","h","0","0","0","11","11","0","11","11","0","0","0","11","11","0","11","11","09/04/18 14:39:33","1500","The main experiment item","yes","FlankerTask.osexp","C:/Users/Anabel/Desktop","no","mono","no","18","no","white","no","yes","768","legacy","11","11","C:/Users/Anabel/Desktop/AWsubject-3.csv","legacy","Jazzy James","3.1.9","0","h","NA","s","NA","NA","h","661","NA","40300","NA","NA","661","2","legacy","1024","2","48000","-16","experiment","SSHSS","3","odd","41849","NA","NA","NA","NA","NA","61825","60762","1547","NA","NA","61823","61927","1543","61927","62589","Flanker Task","12","7267","12","yes","1024"
"100","100","593.461538462","593.461538462","black","no","legacy","legacy","legacy","0","incongruent","uniform","1","undefined","1","s","0","0","0","12","12","0","12","12","0","0","0","12","12","0","12","12","09/04/18 14:39:33","1500","The main experiment item","yes","FlankerTask.osexp","C:/Users/Anabel/Desktop","no","mono","no","18","no","white","no","yes","768","legacy","12","12","C:/Users/Anabel/Desktop/AWsubject-3.csv","legacy","Jazzy James","3.1.9","0","s","NA","s","NA","NA","s","448","NA","40300","NA","NA","448","2","legacy","1024","2","48000","-16","experiment","HHSHH","3","odd","41849","NA","NA","NA","NA","NA","63708","62640","1547","NA","NA","63706","63810","1543","63810","64259","Flanker Task","13","7715","13","yes","1024"
"100","100","593.071428571","593.071428571","black","no","legacy","legacy","legacy","0","congruent","uniform","1","undefined","1","s","0","0","0","13","13","0","13","13","0","0","0","13","13","0","13","13","09/04/18 14:39:33","1500","The main experiment item","yes","FlankerTask.osexp","C:/Users/Anabel/Desktop","no","mono","no","18","no","white","no","yes","768","legacy","13","13","C:/Users/Anabel/Desktop/AWsubject-3.csv","legacy","Jazzy James","3.1.9","0","s","NA","s","NA","NA","s","588","NA","40300","NA","NA","588","2","legacy","1024","2","48000","-16","experiment","SSSSS","3","odd","41849","NA","NA","NA","NA","NA","65380","64307","1547","NA","NA","65378","65482","1543","65482","66071","Flanker Task","14","8303","14","yes","1024"
"100","100","590.866666667","590.866666667","black","no","legacy","legacy","legacy","0","congruent","uniform","1","undefined","1","s","0","0","0","14","14","0","14","14","0","0","0","14","14","0","14","14","09/04/18 14:39:33","1500","The main experiment item","yes","FlankerTask.osexp","C:/Users/Anabel/Desktop","no","mono","no","18","no","white","no","yes","768","legacy","14","14","C:/Users/Anabel/Desktop/AWsubject-3.csv","legacy","Jazzy James","3.1.9","0","s","NA","s","NA","NA","s","560","NA","40300","NA","NA","560","2","legacy","1024","2","48000","-16","experiment","SSSSS","3","odd","41849","NA","NA","NA","NA","NA","67187","66118","1547","NA","NA","67185","67289","1543","67289","67850","Flanker Task","15","8863","15","yes","1024"
"100","100","589.375","589.375","black","no","legacy","legacy","legacy","0","incongruent","uniform","1","undefined","1","h","0","0","0","15","15","0","15","15","0","0","0","15","15","0","15","15","09/04/18 14:39:33","1500","The main experiment item","yes","FlankerTask.osexp","C:/Users/Anabel/Desktop","no","mono","no","18","no","white","no","yes","768","legacy","15","15","C:/Users/Anabel/Desktop/AWsubject-3.csv","legacy","Jazzy James","3.1.9","0","h","NA","s","NA","NA","h","567","NA","40300","NA","NA","567","2","legacy","1024","2","48000","-16","experiment","SSHSS","3","odd","41849","NA","NA","NA","NA","NA","68962","67897","1547","NA","NA","68960","69065","1543","69065","69633","Flanker Task","16","9430","16","yes","1024"
"100","100","589","589","black","no","legacy","legacy","legacy","0","incongruent","uniform","1","undefined","1","h","0","0","0","16","16","0","16","16","0","0","0","16","16","0","16","16","09/04/18 14:39:33","1500","The main experiment item","yes","FlankerTask.osexp","C:/Users/Anabel/Desktop","no","mono","no","18","no","white","no","yes","768","legacy","16","16","C:/Users/Anabel/Desktop/AWsubject-3.csv","legacy","Jazzy James","3.1.9","0","h","NA","s","NA","NA","h","583","NA","40300","NA","NA","583","2","legacy","1024","2","48000","-16","experiment","SSHSS","3","odd","41849","NA","NA","NA","NA","NA","70755","69685","1547","NA","NA","70753","70857","1543","70857","71441","Flanker Task","17","10013","17","yes","1024"
"100","100","584.944444444","584.944444444","black","no","legacy","legacy","legacy","0","incongruent","uniform","1","undefined","1","s","0","0","0","17","17","0","17","17","0","0","0","17","17","0","17","17","09/04/18 14:39:33","1500","The main experiment item","yes","FlankerTask.osexp","C:/Users/Anabel/Desktop","no","mono","no","18","no","white","no","yes","768","legacy","17","17","C:/Users/Anabel/Desktop/AWsubject-3.csv","legacy","Jazzy James","3.1.9","0","s","NA","s","NA","NA","s","516","NA","40300","NA","NA","516","2","legacy","1024","2","48000","-16","experiment","HHSHH","3","odd","41849","NA","NA","NA","NA","NA","72536","71473","1547","NA","NA","72534","72638","1543","72638","73155","Flanker Task","18","10529","18","yes","1024"
"100","100","612.105263158","612.105263158","black","no","legacy","legacy","legacy","0","incongruent","uniform","1","undefined","1","s","0","0","0","18","18","0","18","18","0","0","0","18","18","0","18","18","09/04/18 14:39:33","1500","The main experiment item","yes","FlankerTask.osexp","C:/Users/Anabel/Desktop","no","mono","no","18","no","white","no","yes","768","legacy","18","18","C:/Users/Anabel/Desktop/AWsubject-3.csv","legacy","Jazzy James","3.1.9","0","s","NA","s","NA","NA","s","1101","NA","40300","NA","NA","1101","2","legacy","1024","2","48000","-16","experiment","HHSHH","3","odd","41849","NA","NA","NA","NA","NA","74272","73208","1547","NA","NA","74270","74374","1543","74374","75476","Flanker Task","19","11630","19","yes","1024"
"100","100","610.95","610.95","black","no","legacy","legacy","legacy","0","congruent","uniform","1","undefined","1","h","0","0","0","19","19","0","19","19","0","0","0","19","19","0","19","19","09/04/18 14:39:33","1500","The main experiment item","yes","FlankerTask.osexp","C:/Users/Anabel/Desktop","no","mono","no","18","no","white","no","yes","768","legacy","19","19","C:/Users/Anabel/Desktop/AWsubject-3.csv","legacy","Jazzy James","3.1.9","0","h","NA","s","NA","NA","h","589","NA","40300","NA","NA","589","2","legacy","1024","2","48000","-16","experiment","HHHHH","3","odd","41849","NA","NA","NA","NA","NA","76602","75530","1547","NA","NA","76600","76704","1543","76704","77294","Flanker Task","20","12219","20","yes","1024"
"100","100","614.904761905","614.904761905","black","no","legacy","legacy","legacy","0","incongruent","uniform","1","undefined","1","s","0","0","0","20","20","0","20","20","0","0","0","20","20","0","20","20","09/04/18 14:39:33","1500","The main experiment item","yes","FlankerTask.osexp","C:/Users/Anabel/Desktop","no","mono","no","18","no","white","no","yes","768","legacy","20","20","C:/Users/Anabel/Desktop/AWsubject-3.csv","legacy","Jazzy James","3.1.9","0","s","NA","s","NA","NA","s","694","NA","40300","NA","NA","694","2","legacy","1024","2","48000","-16","experiment","HHSHH","3","odd","41849","NA","NA","NA","NA","NA","78383","77317","1547","NA","NA","78381","78485","1543","78485","79180","Flanker Task","21","12913","21","yes","1024"
"100","100","614.272727273","614.272727273","black","no","legacy","legacy","legacy","0","congruent","uniform","1","undefined","1","s","0","0","0","21","21","0","21","21","0","0","0","21","21","0","21","21","09/04/18 14:39:33","1500","The main experiment item","yes","FlankerTask.osexp","C:/Users/Anabel/Desktop","no","mono","no","18","no","white","no","yes","768","legacy","21","21","C:/Users/Anabel/Desktop/AWsubject-3.csv","legacy","Jazzy James","3.1.9","0","s","NA","s","NA","NA","s","601","NA","40300","NA","NA","601","2","legacy","1024","2","48000","-16","experiment","SSSSS","3","odd","41849","NA","NA","NA","NA","NA","80297","79230","1547","NA","NA","80295","80400","1543","80400","81002","Flanker Task","22","13514","22","yes","1024"
"100","100","610.391304348","610.391304348","black","no","legacy","legacy","legacy","0","congruent","uniform","1","undefined","1","s","0","0","0","22","22","0","22","22","0","0","0","22","22","0","22","22","09/04/18 14:39:33","1500","The main experiment item","yes","FlankerTask.osexp","C:/Users/Anabel/Desktop","no","mono","no","18","no","white","no","yes","768","legacy","22","22","C:/Users/Anabel/Desktop/AWsubject-3.csv","legacy","Jazzy James","3.1.9","0","s","NA","s","NA","NA","s","525","NA","40300","NA","NA","525","2","legacy","1024","2","48000","-16","experiment","SSSSS","3","odd","41849","NA","NA","NA","NA","NA","82123","81051","1547","NA","NA","82121","82225","1543","82225","82751","Flanker Task","23","14039","23","yes","1024"
"100","100","607.333333333","607.333333333","black","no","legacy","legacy","legacy","0","congruent","uniform","1","undefined","1","h","0","0","0","23","23","0","23","23","0","0","0","23","23","0","23","23","09/04/18 14:39:33","1500","The main experiment item","yes","FlankerTask.osexp","C:/Users/Anabel/Desktop","no","mono","no","18","no","white","no","yes","768","legacy","23","23","C:/Users/Anabel/Desktop/AWsubject-3.csv","legacy","Jazzy James","3.1.9","0","h","NA","s","NA","NA","h","537","NA","40300","NA","NA","537","2","legacy","1024","2","48000","-16","experiment","HHHHH","3","odd","41849","NA","NA","NA","NA","NA","83866","82796","1547","NA","NA","83864","83968","1543","83968","84506","Flanker Task","24","14576","24","yes","1024"
"100","100","604.32","604.32","black","no","legacy","legacy","legacy","0","incongruent","uniform","1","undefined","1","s","0","0","0","24","24","0","24","24","0","0","0","24","24","0","24","24","09/04/18 14:39:33","1500","The main experiment item","yes","FlankerTask.osexp","C:/Users/Anabel/Desktop","no","mono","no","18","no","white","no","yes","768","legacy","24","24","C:/Users/Anabel/Desktop/AWsubject-3.csv","legacy","Jazzy James","3.1.9","0","s","NA","s","NA","NA","s","532","NA","40300","NA","NA","532","2","legacy","1024","2","48000","-16","experiment","HHSHH","3","odd","41849","NA","NA","NA","NA","NA","85616","84550","1547","NA","NA","85614","85718","1543","85718","86251","Flanker Task","25","15108","25","yes","1024"
"100","100","602.5","602.5","black","no","legacy","legacy","legacy","0","congruent","uniform","1","undefined","1","s","0","0","0","25","25","0","25","25","0","0","0","25","25","0","25","25","09/04/18 14:39:33","1500","The main experiment item","yes","FlankerTask.osexp","C:/Users/Anabel/Desktop","no","mono","no","18","no","white","no","yes","768","legacy","25","25","C:/Users/Anabel/Desktop/AWsubject-3.csv","legacy","Jazzy James","3.1.9","0","s","NA","s","NA","NA","s","557","NA","40300","NA","NA","557","2","legacy","1024","2","48000","-16","experiment","SSSSS","3","odd","41849","NA","NA","NA","NA","NA","87360","86295","1547","NA","NA","87358","87462","1543","87462","88020","Flanker Task","26","15665","26","yes","1024"
"100","100","600.814814815","600.814814815","black","no","legacy","legacy","legacy","0","incongruent","uniform","1","undefined","1","h","0","0","0","26","26","0","26","26","0","0","0","26","26","0","26","26","09/04/18 14:39:33","1500","The main experiment item","yes","FlankerTask.osexp","C:/Users/Anabel/Desktop","no","mono","no","18","no","white","no","yes","768","legacy","26","26","C:/Users/Anabel/Desktop/AWsubject-3.csv","legacy","Jazzy James","3.1.9","0","h","NA","s","NA","NA","h","557","NA","40300","NA","NA","557","2","legacy","1024","2","48000","-16","experiment","SSHSS","3","odd","41849","NA","NA","NA","NA","NA","89148","88081","1547","NA","NA","89146","89251","1543","89251","89809","Flanker Task","27","16222","27","yes","1024"
"100","100","598.357142857","598.357142857","black","no","legacy","legacy","legacy","0","incongruent","uniform","1","undefined","1","s","0","0","0","27","27","0","27","27","0","0","0","27","27","0","27","27","09/04/18 14:39:33","1500","The main experiment item","yes","FlankerTask.osexp","C:/Users/Anabel/Desktop","no","mono","no","18","no","white","no","yes","768","legacy","27","27","C:/Users/Anabel/Desktop/AWsubject-3.csv","legacy","Jazzy James","3.1.9","0","s","NA","s","NA","NA","s","532","NA","40300","NA","NA","532","2","legacy","1024","2","48000","-16","experiment","HHSHH","3","odd","41849","NA","NA","NA","NA","NA","90919","89852","1547","NA","NA","90917","91021","1543","91021","91554","Flanker Task","28","16754","28","yes","1024"
"100","100","599.310344828","599.310344828","black","no","legacy","legacy","legacy","0","congruent","uniform","1","undefined","1","h","0","0","0","28","28","0","28","28","0","0","0","28","28","0","28","28","09/04/18 14:39:33","1500","The main experiment item","yes","FlankerTask.osexp","C:/Users/Anabel/Desktop","no","mono","no","18","no","white","no","yes","768","legacy","28","28","C:/Users/Anabel/Desktop/AWsubject-3.csv","legacy","Jazzy James","3.1.9","0","h","NA","s","NA","NA","h","626","NA","40300","NA","NA","626","2","legacy","1024","2","48000","-16","experiment","HHHHH","3","odd","41849","NA","NA","NA","NA","NA","92637","91574","1547","NA","NA","92635","92740","1543","92740","93368","Flanker Task","29","17380","29","yes","1024"
"100","100","596.733333333","596.733333333","black","no","legacy","legacy","legacy","0","incongruent","uniform","1","undefined","1","s","0","0","0","29","29","0","29","29","0","0","0","29","29","0","29","29","09/04/18 14:39:33","1500","The main experiment item","yes","FlankerTask.osexp","C:/Users/Anabel/Desktop","no","mono","no","18","no","white","no","yes","768","legacy","29","29","C:/Users/Anabel/Desktop/AWsubject-3.csv","legacy","Jazzy James","3.1.9","0","s","NA","s","NA","NA","s","522","NA","40300","NA","NA","522","2","legacy","1024","2","48000","-16","experiment","HHSHH","3","odd","41849","NA","NA","NA","NA","NA","94487","93418","1547","NA","NA","94485","94589","1543","94589","95112","Flanker Task","30","17902","30","yes","1024"
"100","100","591.451612903","591.451612903","black","no","legacy","legacy","legacy","0","congruent","uniform","1","undefined","1","h","0","0","0","30","30","0","30","30","0","0","0","30","30","0","30","30","09/04/18 14:39:33","1500","The main experiment item","yes","FlankerTask.osexp","C:/Users/Anabel/Desktop","no","mono","no","18","no","white","no","yes","768","legacy","30","30","C:/Users/Anabel/Desktop/AWsubject-3.csv","legacy","Jazzy James","3.1.9","0","h","NA","s","NA","NA","h","433","NA","40300","NA","NA","433","2","legacy","1024","2","48000","-16","experiment","HHHHH","3","odd","41849","NA","NA","NA","NA","NA","96237","95174","1547","NA","NA","96235","96339","1543","96339","96773","Flanker Task","31","18335","31","yes","1024"
"100","100","589.40625","589.40625","black","no","legacy","legacy","legacy","0","congruent","uniform","1","undefined","1","h","0","0","0","31","31","0","31","31","0","0","0","31","31","0","31","31","09/04/18 14:39:33","1500","The main experiment item","yes","FlankerTask.osexp","C:/Users/Anabel/Desktop","no","mono","no","18","no","white","no","yes","768","legacy","31","31","C:/Users/Anabel/Desktop/AWsubject-3.csv","legacy","Jazzy James","3.1.9","0","h","NA","s","NA","NA","h","526","NA","40300","NA","NA","526","2","legacy","1024","2","48000","-16","experiment","HHHHH","3","odd","41849","NA","NA","NA","NA","NA","97902","96830","1547","NA","NA","97900","98004","1543","98004","98531","Flanker Task","32","18861","32","yes","1024"
"100","100","587.03030303","587.03030303","black","no","legacy","legacy","legacy","0","congruent","uniform","1","undefined","1","s","0","0","0","32","32","0","32","32","0","0","0","32","32","0","32","32","09/04/18 14:39:33","1500","The main experiment item","yes","FlankerTask.osexp","C:/Users/Anabel/Desktop","no","mono","no","18","no","white","no","yes","768","legacy","32","32","C:/Users/Anabel/Desktop/AWsubject-3.csv","legacy","Jazzy James","3.1.9","0","s","NA","s","NA","NA","s","511","NA","40300","NA","NA","511","2","legacy","1024","2","48000","-16","experiment","SSSSS","3","odd","41849","NA","NA","NA","NA","NA","99650","98585","1547","NA","NA","99648","99752","1543","99752","100264","Flanker Task","33","19372","33","yes","1024"
"100","100","584.176470588","584.176470588","black","no","legacy","legacy","legacy","0","congruent","uniform","1","undefined","1","h","0","0","0","33","33","0","33","33","0","0","0","33","33","0","33","33","09/04/18 14:39:33","1500","The main experiment item","yes","FlankerTask.osexp","C:/Users/Anabel/Desktop","no","mono","no","18","no","white","no","yes","768","legacy","33","33","C:/Users/Anabel/Desktop/AWsubject-3.csv","legacy","Jazzy James","3.1.9","0","h","NA","s","NA","NA","h","490","NA","40300","NA","NA","490","2","legacy","1024","2","48000","-16","experiment","HHHHH","3","odd","41849","NA","NA","NA","NA","NA","101387","100318","1547","NA","NA","101384","101489","1543","101489","101980","Flanker Task","34","19862","34","yes","1024"
"100","100","579.285714286","579.285714286","black","no","legacy","legacy","legacy","0","incongruent","uniform","1","undefined","1","h","0","0","0","34","34","0","34","34","0","0","0","34","34","0","34","34","09/04/18 14:39:33","1500","The main experiment item","yes","FlankerTask.osexp","C:/Users/Anabel/Desktop","no","mono","no","18","no","white","no","yes","768","legacy","34","34","C:/Users/Anabel/Desktop/AWsubject-3.csv","legacy","Jazzy James","3.1.9","0","h","NA","s","NA","NA","h","413","NA","40300","NA","NA","413","2","legacy","1024","2","48000","-16","experiment","SSHSS","3","odd","41849","NA","NA","NA","NA","NA","103074","102007","1547","NA","NA","103072","103176","1543","103176","103590","Flanker Task","35","20275","35","yes","1024"
"100","100","576.055555556","576.055555556","black","no","legacy","legacy","legacy","0","incongruent","uniform","1","undefined","1","s","0","0","0","35","35","0","35","35","0","0","0","35","35","0","35","35","09/04/18 14:39:33","1500","The main experiment item","yes","FlankerTask.osexp","C:/Users/Anabel/Desktop","no","mono","no","18","no","white","no","yes","768","legacy","35","35","C:/Users/Anabel/Desktop/AWsubject-3.csv","legacy","Jazzy James","3.1.9","0","s","NA","s","NA","NA","s","463","NA","40300","NA","NA","463","2","legacy","1024","2","48000","-16","experiment","HHSHH","3","odd","41849","NA","NA","NA","NA","NA","104745","103674","1547","NA","NA","104743","104847","1543","104847","105311","Flanker Task","36","20738","36","yes","1024"
"100","100","573.864864865","573.864864865","black","no","legacy","legacy","legacy","0","congruent","uniform","1","undefined","1","h","0","0","0","36","36","0","36","36","0","0","0","36","36","0","36","36","09/04/18 14:39:33","1500","The main experiment item","yes","FlankerTask.osexp","C:/Users/Anabel/Desktop","no","mono","no","18","no","white","no","yes","768","legacy","36","36","C:/Users/Anabel/Desktop/AWsubject-3.csv","legacy","Jazzy James","3.1.9","0","h","NA","s","NA","NA","h","495","NA","40300","NA","NA","495","2","legacy","1024","2","48000","-16","experiment","HHHHH","3","odd","41849","NA","NA","NA","NA","NA","106424","105352","1547","NA","NA","106422","106526","1543","106526","107022","Flanker Task","37","21233","37","yes","1024"
"100","100","572.447368421","572.447368421","black","no","legacy","legacy","legacy","0","congruent","uniform","1","undefined","1","h","0","0","0","37","37","0","37","37","0","0","0","37","37","0","37","37","09/04/18 14:39:33","1500","The main experiment item","yes","FlankerTask.osexp","C:/Users/Anabel/Desktop","no","mono","no","18","no","white","no","yes","768","legacy","37","37","C:/Users/Anabel/Desktop/AWsubject-3.csv","legacy","Jazzy James","3.1.9","0","h","NA","s","NA","NA","h","520","NA","40300","NA","NA","520","2","legacy","1024","2","48000","-16","experiment","HHHHH","3","odd","41849","NA","NA","NA","NA","NA","108115","107051","1547","NA","NA","108113","108217","1543","108217","108738","Flanker Task","38","21753","38","yes","1024"
"100","100","572.769230769","572.769230769","black","no","legacy","legacy","legacy","0","incongruent","uniform","1","undefined","1","h","0","0","0","38","38","0","38","38","0","0","0","38","38","0","38","38","09/04/18 14:39:33","1500","The main experiment item","yes","FlankerTask.osexp","C:/Users/Anabel/Desktop","no","mono","no","18","no","white","no","yes","768","legacy","38","38","C:/Users/Anabel/Desktop/AWsubject-3.csv","legacy","Jazzy James","3.1.9","0","h","NA","s","NA","NA","h","585","NA","40300","NA","NA","585","2","legacy","1024","2","48000","-16","experiment","SSHSS","3","odd","41849","NA","NA","NA","NA","NA","109869","108796","1547","NA","NA","109867","109971","1543","109971","110557","Flanker Task","39","22338","39","yes","1024"
"100","100","568.225","568.225","black","no","legacy","legacy","legacy","0","incongruent","uniform","1","undefined","1","h","0","0","0","39","39","0","39","39","0","0","0","39","39","0","39","39","09/04/18 14:39:33","1500","The main experiment item","yes","FlankerTask.osexp","C:/Users/Anabel/Desktop","no","mono","no","18","no","white","no","yes","768","legacy","39","39","C:/Users/Anabel/Desktop/AWsubject-3.csv","legacy","Jazzy James","3.1.9","0","h","NA","s","NA","NA","h","391","NA","40300","NA","NA","391","2","legacy","1024","2","48000","-16","experiment","SSHSS","3","odd","41849","NA","NA","NA","NA","NA","111653","110573","1547","NA","NA","111649","111755","1543","111755","112147","Flanker Task","40","22729","40","yes","1024"
"100","100","570.024390244","570.024390244","black","no","legacy","legacy","legacy","0","congruent","uniform","1","undefined","1","s","0","0","0","40","40","0","40","40","0","0","0","40","40","0","40","40","09/04/18 14:39:33","1500","The main experiment item","yes","FlankerTask.osexp","C:/Users/Anabel/Desktop","no","mono","no","18","no","white","no","yes","768","legacy","40","40","C:/Users/Anabel/Desktop/AWsubject-3.csv","legacy","Jazzy James","3.1.9","0","s","NA","s","NA","NA","s","642","NA","40300","NA","NA","642","2","legacy","1024","2","48000","-16","experiment","SSSSS","3","odd","41849","NA","NA","NA","NA","NA","113245","112162","1547","NA","NA","113243","113347","1543","113347","113990","Flanker Task","41","23371","41","yes","1024"
"100","100","567","567","black","no","legacy","legacy","legacy","0","incongruent","uniform","1","undefined","1","s","0","0","0","41","41","0","41","41","0","0","0","41","41","0","41","41","09/04/18 14:39:33","1500","The main experiment item","yes","FlankerTask.osexp","C:/Users/Anabel/Desktop","no","mono","no","18","no","white","no","yes","768","legacy","41","41","C:/Users/Anabel/Desktop/AWsubject-3.csv","legacy","Jazzy James","3.1.9","0","s","NA","s","NA","NA","s","443","NA","40300","NA","NA","443","2","legacy","1024","2","48000","-16","experiment","HHSHH","3","odd","41849","NA","NA","NA","NA","NA","115104","114040","1547","NA","NA","115102","115206","1543","115206","115650","Flanker Task","42","23814","42","yes","1024"
"100","100","563.674418605","563.674418605","black","no","legacy","legacy","legacy","0","congruent","uniform","1","undefined","1","h","0","0","0","42","42","0","42","42","0","0","0","42","42","0","42","42","09/04/18 14:39:33","1500","The main experiment item","yes","FlankerTask.osexp","C:/Users/Anabel/Desktop","no","mono","no","18","no","white","no","yes","768","legacy","42","42","C:/Users/Anabel/Desktop/AWsubject-3.csv","legacy","Jazzy James","3.1.9","0","h","NA","s","NA","NA","h","424","NA","40300","NA","NA","424","2","legacy","1024","2","48000","-16","experiment","HHHHH","3","odd","41849","NA","NA","NA","NA","NA","116776","115707","1547","NA","NA","116774","116878","1543","116878","117303","Flanker Task","43","24238","43","yes","1024"
"100","100","559.772727273","559.772727273","black","no","legacy","legacy","legacy","0","congruent","uniform","1","undefined","1","s","0","0","0","43","43","0","43","43","0","0","0","43","43","0","43","43","09/04/18 14:39:33","1500","The main experiment item","yes","FlankerTask.osexp","C:/Users/Anabel/Desktop","no","mono","no","18","no","white","no","yes","768","legacy","43","43","C:/Users/Anabel/Desktop/AWsubject-3.csv","legacy","Jazzy James","3.1.9","0","s","NA","s","NA","NA","s","392","NA","40300","NA","NA","392","2","legacy","1024","2","48000","-16","experiment","SSSSS","3","odd","41849","NA","NA","NA","NA","NA","118398","117329","1547","NA","NA","118396","118500","1543","118500","118893","Flanker Task","44","24630","44","yes","1024"
"100","100","556.066666667","556.066666667","black","no","legacy","legacy","legacy","0","congruent","uniform","1","undefined","1","s","0","0","0","44","44","0","44","44","0","0","0","44","44","0","44","44","09/04/18 14:39:33","1500","The main experiment item","yes","FlankerTask.osexp","C:/Users/Anabel/Desktop","no","mono","no","18","no","white","no","yes","768","legacy","44","44","C:/Users/Anabel/Desktop/AWsubject-3.csv","legacy","Jazzy James","3.1.9","0","s","NA","s","NA","NA","s","393","NA","40300","NA","NA","393","2","legacy","1024","2","48000","-16","experiment","SSSSS","3","odd","41849","NA","NA","NA","NA","NA","120019","118952","1547","NA","NA","120017","120121","1543","120121","120515","Flanker Task","45","25023","45","yes","1024"
"100","100","555.282608696","555.282608696","black","no","legacy","legacy","legacy","0","incongruent","uniform","1","undefined","1","h","0","0","0","45","45","0","45","45","0","0","0","45","45","0","45","45","09/04/18 14:39:33","1500","The main experiment item","yes","FlankerTask.osexp","C:/Users/Anabel/Desktop","no","mono","no","18","no","white","no","yes","768","legacy","45","45","C:/Users/Anabel/Desktop/AWsubject-3.csv","legacy","Jazzy James","3.1.9","0","h","NA","s","NA","NA","h","520","NA","40300","NA","NA","520","2","legacy","1024","2","48000","-16","experiment","SSHSS","3","odd","41849","NA","NA","NA","NA","NA","121634","120564","1547","NA","NA","121632","121737","1543","121737","122258","Flanker Task","46","25543","46","yes","1024"
"100","100","553.808510638","553.808510638","black","no","legacy","legacy","legacy","0","incongruent","uniform","1","undefined","1","s","0","0","0","46","46","0","46","46","0","0","0","46","46","0","46","46","09/04/18 14:39:33","1500","The main experiment item","yes","FlankerTask.osexp","C:/Users/Anabel/Desktop","no","mono","no","18","no","white","no","yes","768","legacy","46","46","C:/Users/Anabel/Desktop/AWsubject-3.csv","legacy","Jazzy James","3.1.9","0","s","NA","s","NA","NA","s","486","NA","40300","NA","NA","486","2","legacy","1024","2","48000","-16","experiment","HHSHH","3","odd","41849","NA","NA","NA","NA","NA","123344","122273","1547","NA","NA","123342","123446","1543","123446","123933","Flanker Task","47","26029","47","yes","1024"
"100","100","550.3125","550.3125","black","no","legacy","legacy","legacy","0","congruent","uniform","1","undefined","1","h","0","0","0","47","47","0","47","47","0","0","0","47","47","0","47","47","09/04/18 14:39:33","1500","The main experiment item","yes","FlankerTask.osexp","C:/Users/Anabel/Desktop","no","mono","no","18","no","white","no","yes","768","legacy","47","47","C:/Users/Anabel/Desktop/AWsubject-3.csv","legacy","Jazzy James","3.1.9","0","h","NA","s","NA","NA","h","386","NA","40300","NA","NA","386","2","legacy","1024","2","48000","-16","experiment","HHHHH","3","odd","41849","NA","NA","NA","NA","NA","125062","123997","1547","NA","NA","125060","125164","1543","125164","125552","Flanker Task","48","26415","48","yes","1024"
"100","100","548.714285714","548.714285714","black","no","legacy","legacy","legacy","0","incongruent","uniform","1","undefined","1","h","0","0","0","48","48","0","48","48","0","0","0","48","48","0","48","48","09/04/18 14:39:33","1500","The main experiment item","yes","FlankerTask.osexp","C:/Users/Anabel/Desktop","no","mono","no","18","no","white","no","yes","768","legacy","48","48","C:/Users/Anabel/Desktop/AWsubject-3.csv","legacy","Jazzy James","3.1.9","0","h","NA","s","NA","NA","h","472","NA","40300","NA","NA","472","2","legacy","1024","2","48000","-16","experiment","SSHSS","3","odd","41849","NA","NA","NA","NA","NA","126671","125598","1547","NA","NA","126668","126773","1543","126773","127246","Flanker Task","49","26887","49","yes","1024"
"100","100","545.78","545.78","black","no","legacy","legacy","legacy","0","congruent","uniform","1","undefined","1","s","0","0","0","49","49","0","49","49","0","0","0","49","49","0","49","49","09/04/18 14:39:33","1500","The main experiment item","yes","FlankerTask.osexp","C:/Users/Anabel/Desktop","no","mono","no","18","no","white","no","yes","768","legacy","49","49","C:/Users/Anabel/Desktop/AWsubject-3.csv","legacy","Jazzy James","3.1.9","0","s","NA","s","NA","NA","s","402","NA","40300","NA","NA","402","2","legacy","1024","2","48000","-16","experiment","SSSSS","3","odd","41849","NA","NA","NA","NA","NA","128361","127296","1547","NA","NA","128359","128463","1543","128463","128866","Flanker Task","50","27289","50","yes","1024"
"100","100","542.803921569","542.803921569","black","no","legacy","legacy","legacy","0","congruent","uniform","1","undefined","1","h","0","0","0","50","50","0","50","50","0","0","0","50","50","0","50","50","09/04/18 14:39:33","1500","The main experiment item","yes","FlankerTask.osexp","C:/Users/Anabel/Desktop","no","mono","no","18","no","white","no","yes","768","legacy","50","50","C:/Users/Anabel/Desktop/AWsubject-3.csv","legacy","Jazzy James","3.1.9","0","h","NA","s","NA","NA","h","394","NA","40300","NA","NA","394","2","legacy","1024","2","48000","-16","experiment","HHHHH","3","odd","41849","NA","NA","NA","NA","NA","129976","128908","1547","NA","NA","129974","130078","1543","130078","130473","Flanker Task","51","27683","51","yes","1024"
"100","100","542.230769231","542.230769231","black","no","legacy","legacy","legacy","0","congruent","uniform","1","undefined","1","s","0","0","0","51","51","0","51","51","0","0","0","51","51","0","51","51","09/04/18 14:39:33","1500","The main experiment item","yes","FlankerTask.osexp","C:/Users/Anabel/Desktop","no","mono","no","18","no","white","no","yes","768","legacy","51","51","C:/Users/Anabel/Desktop/AWsubject-3.csv","legacy","Jazzy James","3.1.9","0","s","NA","s","NA","NA","s","513","NA","40300","NA","NA","513","2","legacy","1024","2","48000","-16","experiment","SSSSS","3","odd","41849","NA","NA","NA","NA","NA","131601","130519","1547","NA","NA","131596","131702","1543","131702","132216","Flanker Task","52","28196","52","yes","1024"
"100","100","541.811320755","541.811320755","black","no","legacy","legacy","legacy","0","congruent","uniform","1","undefined","1","h","0","0","0","52","52","0","52","52","0","0","0","52","52","0","52","52","09/04/18 14:39:33","1500","The main experiment item","yes","FlankerTask.osexp","C:/Users/Anabel/Desktop","no","mono","no","18","no","white","no","yes","768","legacy","52","52","C:/Users/Anabel/Desktop/AWsubject-3.csv","legacy","Jazzy James","3.1.9","0","h","NA","s","NA","NA","h","520","NA","40300","NA","NA","520","2","legacy","1024","2","48000","-16","experiment","HHHHH","3","odd","41849","NA","NA","NA","NA","NA","133328","132275","1547","NA","NA","133326","133430","1543","133430","133952","Flanker Task","53","28716","53","yes","1024"
"100","100","538.777777778","538.777777778","black","no","legacy","legacy","legacy","0","incongruent","uniform","1","undefined","1","s","0","0","0","53","53","0","53","53","0","0","0","53","53","0","53","53","09/04/18 14:39:33","1500","The main experiment item","yes","FlankerTask.osexp","C:/Users/Anabel/Desktop","no","mono","no","18","no","white","no","yes","768","legacy","53","53","C:/Users/Anabel/Desktop/AWsubject-3.csv","legacy","Jazzy James","3.1.9","0","s","NA","s","NA","NA","s","378","NA","40300","NA","NA","378","2","legacy","1024","2","48000","-16","experiment","HHSHH","3","odd","41849","NA","NA","NA","NA","NA","135047","133996","1547","NA","NA","135045","135148","1543","135148","135527","Flanker Task","54","29094","54","yes","1024"
"100","100","538.618181818","538.618181818","black","no","legacy","legacy","legacy","0","congruent","uniform","1","undefined","1","s","0","0","0","54","54","0","54","54","0","0","0","54","54","0","54","54","09/04/18 14:39:33","1500","The main experiment item","yes","FlankerTask.osexp","C:/Users/Anabel/Desktop","no","mono","no","18","no","white","no","yes","768","legacy","54","54","C:/Users/Anabel/Desktop/AWsubject-3.csv","legacy","Jazzy James","3.1.9","0","s","NA","s","NA","NA","s","530","NA","40300","NA","NA","530","2","legacy","1024","2","48000","-16","experiment","SSSSS","3","odd","41849","NA","NA","NA","NA","NA","136609","135558","1547","NA","NA","136607","136710","1543","136710","137242","Flanker Task","55","29624","55","yes","1024"
"98.2142857143","98.2142857143","536.214285714","536.214285714","black","no","legacy","legacy","legacy","0","incongruent","uniform","0","undefined","0","s","0","0","0","55","55","0","55","55","0","0","0","55","55","0","55","55","09/04/18 14:39:33","1500","The main experiment item","yes","FlankerTask.osexp","C:/Users/Anabel/Desktop","no","mono","no","18","no","white","no","yes","768","legacy","55","55","C:/Users/Anabel/Desktop/AWsubject-3.csv","legacy","Jazzy James","3.1.9","0","h","NA","s","NA","NA","h","404","NA","40300","NA","NA","404","2","legacy","1024","2","48000","-16","experiment","HHSHH","3","odd","41849","NA","NA","NA","NA","NA","138326","137274","1547","NA","NA","138324","138427","1543","138427","138833","Flanker Task","55","30028","56","yes","1024"
"98.2456140351","98.2456140351","539.315789474","539.315789474","black","no","legacy","legacy","legacy","0","incongruent","uniform","1","undefined","1","s","0","0","0","56","56","0","56","56","0","0","0","56","56","0","56","56","09/04/18 14:39:33","1500","The main experiment item","yes","FlankerTask.osexp","C:/Users/Anabel/Desktop","no","mono","no","18","no","white","no","yes","768","legacy","56","56","C:/Users/Anabel/Desktop/AWsubject-3.csv","legacy","Jazzy James","3.1.9","0","s","NA","s","NA","NA","s","713","NA","40300","NA","NA","713","2","legacy","1024","2","48000","-16","experiment","HHSHH","3","odd","41849","NA","NA","138929","NA","NA","140489","139430","1547","NA","NA","140487","140590","1543","140590","141305","Flanker Task","56","30741","57","yes","1024"
"98.275862069","98.275862069","539.74137931","539.74137931","black","no","legacy","legacy","legacy","0","incongruent","uniform","1","undefined","1","s","0","0","0","57","57","0","57","57","0","0","0","57","57","0","57","57","09/04/18 14:39:33","1500","The main experiment item","yes","FlankerTask.osexp","C:/Users/Anabel/Desktop","no","mono","no","18","no","white","no","yes","768","legacy","57","57","C:/Users/Anabel/Desktop/AWsubject-3.csv","legacy","Jazzy James","3.1.9","0","s","NA","s","NA","NA","s","564","NA","40300","NA","NA","564","2","legacy","1024","2","48000","-16","experiment","HHSHH","3","odd","41849","NA","NA","138929","NA","NA","142382","141329","1547","NA","NA","142380","142484","1543","142484","143049","Flanker Task","57","31305","58","yes","1024"
"98.3050847458","98.3050847458","537.593220339","537.593220339","black","no","legacy","legacy","legacy","0","congruent","uniform","1","undefined","1","s","0","0","0","58","58","0","58","58","0","0","0","58","58","0","58","58","09/04/18 14:39:33","1500","The main experiment item","yes","FlankerTask.osexp","C:/Users/Anabel/Desktop","no","mono","no","18","no","white","no","yes","768","legacy","58","58","C:/Users/Anabel/Desktop/AWsubject-3.csv","legacy","Jazzy James","3.1.9","0","s","NA","s","NA","NA","s","413","NA","40300","NA","NA","413","2","legacy","1024","2","48000","-16","experiment","SSSSS","3","odd","41849","NA","NA","138929","NA","NA","144148","143073","1547","NA","NA","144146","144250","1543","144250","144664","Flanker Task","58","31718","59","yes","1024"
"98.3333333333","98.3333333333","538.666666667","538.666666667","black","no","legacy","legacy","legacy","0","incongruent","uniform","1","undefined","1","h","0","0","0","59","59","0","59","59","0","0","0","59","59","0","59","59","09/04/18 14:39:33","1500","The main experiment item","yes","FlankerTask.osexp","C:/Users/Anabel/Desktop","no","mono","no","18","no","white","no","yes","768","legacy","59","59","C:/Users/Anabel/Desktop/AWsubject-3.csv","legacy","Jazzy James","3.1.9","0","h","NA","s","NA","NA","h","602","NA","40300","NA","NA","602","2","legacy","1024","2","48000","-16","experiment","SSHSS","3","odd","41849","NA","NA","138929","NA","NA","145787","144715","1547","NA","NA","145785","145890","1543","145890","146494","Flanker Task","59","32320","60","yes","1024"
"98.3606557377","98.3606557377","540.442622951","540.442622951","black","no","legacy","legacy","legacy","0","incongruent","uniform","1","undefined","1","h","0","0","0","60","60","0","60","60","0","0","0","60","60","0","60","60","09/04/18 14:39:33","1500","The main experiment item","yes","FlankerTask.osexp","C:/Users/Anabel/Desktop","no","mono","no","18","no","white","no","yes","768","legacy","60","60","C:/Users/Anabel/Desktop/AWsubject-3.csv","legacy","Jazzy James","3.1.9","0","h","NA","s","NA","NA","h","647","NA","40300","NA","NA","647","2","legacy","1024","2","48000","-16","experiment","SSHSS","3","odd","41849","NA","NA","138929","NA","NA","147583","146529","1547","NA","NA","147581","147684","1543","147684","148332","Flanker Task","60","32967","61","yes","1024"
"98.3870967742","98.3870967742","541.306451613","541.306451613","black","no","legacy","legacy","legacy","0","incongruent","uniform","1","undefined","1","h","0","0","0","61","61","0","61","61","0","0","0","61","61","0","61","61","09/04/18 14:39:33","1500","The main experiment item","yes","FlankerTask.osexp","C:/Users/Anabel/Desktop","no","mono","no","18","no","white","no","yes","768","legacy","61","61","C:/Users/Anabel/Desktop/AWsubject-3.csv","legacy","Jazzy James","3.1.9","0","h","NA","s","NA","NA","h","594","NA","40300","NA","NA","594","2","legacy","1024","2","48000","-16","experiment","SSHSS","3","odd","41849","NA","NA","138929","NA","NA","149422","148351","1547","NA","NA","149420","149524","1543","149524","150120","Flanker Task","61","33561","62","yes","1024"
"98.4126984127","98.4126984127","539.571428571","539.571428571","black","no","legacy","legacy","legacy","0","incongruent","uniform","1","undefined","1","h","0","0","0","62","62","0","62","62","0","0","0","62","62","0","62","62","09/04/18 14:39:33","1500","The main experiment item","yes","FlankerTask.osexp","C:/Users/Anabel/Desktop","no","mono","no","18","no","white","no","yes","768","legacy","62","62","C:/Users/Anabel/Desktop/AWsubject-3.csv","legacy","Jazzy James","3.1.9","0","h","NA","s","NA","NA","h","432","NA","40300","NA","NA","432","2","legacy","1024","2","48000","-16","experiment","SSHSS","3","odd","41849","NA","NA","138929","NA","NA","151220","150152","1547","NA","NA","151218","151322","1543","151322","151755","Flanker Task","62","33993","63","yes","1024"
"98.4375","98.4375","539.71875","539.71875","black","no","legacy","legacy","legacy","0","congruent","uniform","1","undefined","1","s","0","0","0","63","63","0","63","63","0","0","0","63","63","0","63","63","09/04/18 14:39:33","1500","The main experiment item","yes","FlankerTask.osexp","C:/Users/Anabel/Desktop","no","mono","no","18","no","white","no","yes","768","legacy","63","63","C:/Users/Anabel/Desktop/AWsubject-3.csv","legacy","Jazzy James","3.1.9","0","s","NA","s","NA","NA","s","549","NA","40300","NA","NA","549","2","legacy","1024","2","48000","-16","experiment","SSSSS","3","odd","41849","NA","NA","138929","NA","NA","152873","151808","1547","NA","NA","152871","152975","1543","152975","153526","Flanker Task","63","34542","64","yes","1024"
"98.4615384615","98.4615384615","540.030769231","540.030769231","black","no","legacy","legacy","legacy","0","incongruent","uniform","1","undefined","1","s","0","0","0","64","64","0","64","64","0","0","0","64","64","0","64","64","09/04/18 14:39:33","1500","The main experiment item","yes","FlankerTask.osexp","C:/Users/Anabel/Desktop","no","mono","no","18","no","white","no","yes","768","legacy","64","64","C:/Users/Anabel/Desktop/AWsubject-3.csv","legacy","Jazzy James","3.1.9","0","s","NA","s","NA","NA","s","560","NA","40300","NA","NA","560","2","legacy","1024","2","48000","-16","experiment","HHSHH","3","odd","41849","NA","NA","138929","NA","NA","154660","153586","1547","NA","NA","154658","154762","1543","154762","155324","Flanker Task","64","35102","65","yes","1024"
"98.4848484848","98.4848484848","541.075757576","541.075757576","black","no","legacy","legacy","legacy","0","incongruent","uniform","1","undefined","1","h","0","0","0","65","65","0","65","65","0","0","0","65","65","0","65","65","09/04/18 14:39:33","1500","The main experiment item","yes","FlankerTask.osexp","C:/Users/Anabel/Desktop","no","mono","no","18","no","white","no","yes","768","legacy","65","65","C:/Users/Anabel/Desktop/AWsubject-3.csv","legacy","Jazzy James","3.1.9","0","h","NA","s","NA","NA","h","609","NA","40300","NA","NA","609","2","legacy","1024","2","48000","-16","experiment","SSHSS","3","odd","41849","NA","NA","138929","NA","NA","156441","155375","1547","NA","NA","156439","156543","1543","156543","157154","Flanker Task","65","35711","66","yes","1024"
"98.5074626866","98.5074626866","542.731343284","542.731343284","black","no","legacy","legacy","legacy","0","incongruent","uniform","1","undefined","1","h","0","0","0","66","66","0","66","66","0","0","0","66","66","0","66","66","09/04/18 14:39:33","1500","The main experiment item","yes","FlankerTask.osexp","C:/Users/Anabel/Desktop","no","mono","no","18","no","white","no","yes","768","legacy","66","66","C:/Users/Anabel/Desktop/AWsubject-3.csv","legacy","Jazzy James","3.1.9","0","h","NA","s","NA","NA","h","652","NA","40300","NA","NA","652","2","legacy","1024","2","48000","-16","experiment","SSHSS","3","odd","41849","NA","NA","138929","NA","NA","158273","157208","1547","NA","NA","158271","158375","1543","158375","159029","Flanker Task","66","36363","67","yes","1024"
"98.5294117647","98.5294117647","542.426470588","542.426470588","black","no","legacy","legacy","legacy","0","congruent","uniform","1","undefined","1","h","0","0","0","67","67","0","67","67","0","0","0","67","67","0","67","67","09/04/18 14:39:33","1500","The main experiment item","yes","FlankerTask.osexp","C:/Users/Anabel/Desktop","no","mono","no","18","no","white","no","yes","768","legacy","67","67","C:/Users/Anabel/Desktop/AWsubject-3.csv","legacy","Jazzy James","3.1.9","0","h","NA","s","NA","NA","h","522","NA","40300","NA","NA","522","2","legacy","1024","2","48000","-16","experiment","HHHHH","3","odd","41849","NA","NA","138929","NA","NA","160155","159085","1547","NA","NA","160153","160257","1543","160257","160781","Flanker Task","67","36885","68","yes","1024"
"98.5507246377","98.5507246377","540.463768116","540.463768116","black","no","legacy","legacy","legacy","0","incongruent","uniform","1","undefined","1","h","0","0","0","68","68","0","68","68","0","0","0","68","68","0","68","68","09/04/18 14:39:33","1500","The main experiment item","yes","FlankerTask.osexp","C:/Users/Anabel/Desktop","no","mono","no","18","no","white","no","yes","768","legacy","68","68","C:/Users/Anabel/Desktop/AWsubject-3.csv","legacy","Jazzy James","3.1.9","0","h","NA","s","NA","NA","h","407","NA","40300","NA","NA","407","2","legacy","1024","2","48000","-16","experiment","SSHSS","3","odd","41849","NA","NA","138929","NA","NA","161904","160841","1547","NA","NA","161902","162006","1543","162006","162415","Flanker Task","68","37292","69","yes","1024"
"98.5714285714","98.5714285714","540.085714286","540.085714286","black","no","legacy","legacy","legacy","0","congruent","uniform","1","undefined","1","s","0","0","0","69","69","0","69","69","0","0","0","69","69","0","69","69","09/04/18 14:39:33","1500","The main experiment item","yes","FlankerTask.osexp","C:/Users/Anabel/Desktop","no","mono","no","18","no","white","no","yes","768","legacy","69","69","C:/Users/Anabel/Desktop/AWsubject-3.csv","legacy","Jazzy James","3.1.9","0","s","NA","s","NA","NA","s","514","NA","40300","NA","NA","514","2","legacy","1024","2","48000","-16","experiment","SSSSS","3","odd","41849","NA","NA","138929","NA","NA","163497","162429","1547","NA","NA","163495","163599","1543","163599","164115","Flanker Task","69","37806","70","yes","1024"
"98.5915492958","98.5915492958","540.225352113","540.225352113","black","no","legacy","legacy","legacy","0","incongruent","uniform","1","undefined","1","s","0","0","0","70","70","0","70","70","0","0","0","70","70","0","70","70","09/04/18 14:39:33","1500","The main experiment item","yes","FlankerTask.osexp","C:/Users/Anabel/Desktop","no","mono","no","18","no","white","no","yes","768","legacy","70","70","C:/Users/Anabel/Desktop/AWsubject-3.csv","legacy","Jazzy James","3.1.9","0","s","NA","s","NA","NA","s","550","NA","40300","NA","NA","550","2","legacy","1024","2","48000","-16","experiment","HHSHH","3","odd","41849","NA","NA","138929","NA","NA","165224","164152","1547","NA","NA","165221","165326","1543","165326","165878","Flanker Task","70","38356","71","yes","1024"
"98.6111111111","98.6111111111","541.333333333","541.333333333","black","no","legacy","legacy","legacy","0","incongruent","uniform","1","undefined","1","h","0","0","0","71","71","0","71","71","0","0","0","71","71","0","71","71","09/04/18 14:39:33","1500","The main experiment item","yes","FlankerTask.osexp","C:/Users/Anabel/Desktop","no","mono","no","18","no","white","no","yes","768","legacy","71","71","C:/Users/Anabel/Desktop/AWsubject-3.csv","legacy","Jazzy James","3.1.9","0","h","NA","s","NA","NA","h","620","NA","40300","NA","NA","620","2","legacy","1024","2","48000","-16","experiment","SSHSS","3","odd","41849","NA","NA","138929","NA","NA","166999","165930","1547","NA","NA","166997","167101","1543","167101","167723","Flanker Task","71","38976","72","yes","1024"
"98.6301369863","98.6301369863","541.98630137","541.98630137","black","no","legacy","legacy","legacy","0","incongruent","uniform","1","undefined","1","s","0","0","0","72","72","0","72","72","0","0","0","72","72","0","72","72","09/04/18 14:39:33","1500","The main experiment item","yes","FlankerTask.osexp","C:/Users/Anabel/Desktop","no","mono","no","18","no","white","no","yes","768","legacy","72","72","C:/Users/Anabel/Desktop/AWsubject-3.csv","legacy","Jazzy James","3.1.9","0","s","NA","s","NA","NA","s","589","NA","40300","NA","NA","589","2","legacy","1024","2","48000","-16","experiment","HHSHH","3","odd","41849","NA","NA","138929","NA","NA","168855","167785","1547","NA","NA","168853","168957","1543","168957","169547","Flanker Task","72","39565","73","yes","1024"
"98.6486486486","98.6486486486","542.243243243","542.243243243","black","no","legacy","legacy","legacy","0","congruent","uniform","1","undefined","1","h","0","0","0","73","73","0","73","73","0","0","0","73","73","0","73","73","09/04/18 14:39:33","1500","The main experiment item","yes","FlankerTask.osexp","C:/Users/Anabel/Desktop","no","mono","no","18","no","white","no","yes","768","legacy","73","73","C:/Users/Anabel/Desktop/AWsubject-3.csv","legacy","Jazzy James","3.1.9","0","h","NA","s","NA","NA","h","561","NA","40300","NA","NA","561","2","legacy","1024","2","48000","-16","experiment","HHHHH","3","odd","41849","NA","NA","138929","NA","NA","170681","169608","1547","NA","NA","170678","170783","1543","170783","171346","Flanker Task","73","40126","74","yes","1024"
"98.6666666667","98.6666666667","541.413333333","541.413333333","black","no","legacy","legacy","legacy","0","congruent","uniform","1","undefined","1","s","0","0","0","74","74","0","74","74","0","0","0","74","74","0","74","74","09/04/18 14:39:33","1500","The main experiment item","yes","FlankerTask.osexp","C:/Users/Anabel/Desktop","no","mono","no","18","no","white","no","yes","768","legacy","74","74","C:/Users/Anabel/Desktop/AWsubject-3.csv","legacy","Jazzy James","3.1.9","0","s","NA","s","NA","NA","s","480","NA","40300","NA","NA","480","2","legacy","1024","2","48000","-16","experiment","SSSSS","3","odd","41849","NA","NA","138929","NA","NA","172462","171397","1547","NA","NA","172460","172564","1543","172564","173046","Flanker Task","74","40606","75","yes","1024"
"98.6842105263","98.6842105263","540.052631579","540.052631579","black","no","legacy","legacy","legacy","0","congruent","uniform","1","undefined","1","h","0","0","0","75","75","0","75","75","0","0","0","75","75","0","75","75","09/04/18 14:39:33","1500","The main experiment item","yes","FlankerTask.osexp","C:/Users/Anabel/Desktop","no","mono","no","18","no","white","no","yes","768","legacy","75","75","C:/Users/Anabel/Desktop/AWsubject-3.csv","legacy","Jazzy James","3.1.9","0","h","NA","s","NA","NA","h","438","NA","40300","NA","NA","438","2","legacy","1024","2","48000","-16","experiment","HHHHH","3","odd","41849","NA","NA","138929","NA","NA","174173","173108","1547","NA","NA","174171","174275","1543","174275","174714","Flanker Task","75","41044","76","yes","1024"
"98.7012987013","98.7012987013","539.077922078","539.077922078","black","no","legacy","legacy","legacy","0","congruent","uniform","1","undefined","1","h","0","0","0","76","76","0","76","76","0","0","0","76","76","0","76","76","09/04/18 14:39:33","1500","The main experiment item","yes","FlankerTask.osexp","C:/Users/Anabel/Desktop","no","mono","no","18","no","white","no","yes","768","legacy","76","76","C:/Users/Anabel/Desktop/AWsubject-3.csv","legacy","Jazzy James","3.1.9","0","h","NA","s","NA","NA","h","465","NA","40300","NA","NA","465","2","legacy","1024","2","48000","-16","experiment","HHHHH","3","odd","41849","NA","NA","138929","NA","NA","175843","174771","1547","NA","NA","175840","175945","1543","175945","176411","Flanker Task","76","41509","77","yes","1024"
"98.7179487179","98.7179487179","538.294871795","538.294871795","black","no","legacy","legacy","legacy","0","congruent","uniform","1","undefined","1","s","0","0","0","77","77","0","77","77","0","0","0","77","77","0","77","77","09/04/18 14:39:33","1500","The main experiment item","yes","FlankerTask.osexp","C:/Users/Anabel/Desktop","no","mono","no","18","no","white","no","yes","768","legacy","77","77","C:/Users/Anabel/Desktop/AWsubject-3.csv","legacy","Jazzy James","3.1.9","0","s","NA","s","NA","NA","s","478","NA","40300","NA","NA","478","2","legacy","1024","2","48000","-16","experiment","SSSSS","3","odd","41849","NA","NA","138929","NA","NA","177537","176474","1547","NA","NA","177536","177640","1543","177640","178120","Flanker Task","77","41987","78","yes","1024"
"98.7341772152","98.7341772152","536.443037975","536.443037975","black","no","legacy","legacy","legacy","0","congruent","uniform","1","undefined","1","s","0","0","0","78","78","0","78","78","0","0","0","78","78","0","78","78","09/04/18 14:39:33","1500","The main experiment item","yes","FlankerTask.osexp","C:/Users/Anabel/Desktop","no","mono","no","18","no","white","no","yes","768","legacy","78","78","C:/Users/Anabel/Desktop/AWsubject-3.csv","legacy","Jazzy James","3.1.9","0","s","NA","s","NA","NA","s","392","NA","40300","NA","NA","392","2","legacy","1024","2","48000","-16","experiment","SSSSS","3","odd","41849","NA","NA","138929","NA","NA","179235","178163","1547","NA","NA","179233","179337","1543","179337","179731","Flanker Task","78","42379","79","yes","1024"
"98.75","98.75","536.3625","536.3625","black","no","legacy","legacy","legacy","0","incongruent","uniform","1","undefined","1","h","0","0","0","79","79","0","79","79","0","0","0","79","79","0","79","79","09/04/18 14:39:33","1500","The main experiment item","yes","FlankerTask.osexp","C:/Users/Anabel/Desktop","no","mono","no","18","no","white","no","yes","768","legacy","79","79","C:/Users/Anabel/Desktop/AWsubject-3.csv","legacy","Jazzy James","3.1.9","0","h","NA","s","NA","NA","h","530","NA","40300","NA","NA","530","2","legacy","1024","2","48000","-16","experiment","SSHSS","3","odd","41849","NA","NA","138929","NA","NA","180838","179774","1547","NA","NA","180836","180940","1543","180940","181472","Flanker Task","79","42909","80","yes","1024"
"98.7654320988","98.7654320988","537.604938272","537.604938272","black","no","legacy","legacy","legacy","0","incongruent","uniform","1","undefined","1","s","0","0","0","80","80","0","80","80","0","0","0","80","80","0","80","80","09/04/18 14:39:33","600","The main experiment item","yes","FlankerTask.osexp","C:/Users/Anabel/Desktop","no","mono","no","18","no","white","no","yes","768","legacy","0","79","C:/Users/Anabel/Desktop/AWsubject-3.csv","legacy","Jazzy James","3.1.9","0","s","NA","s","s","NA","s","637","NA","40300","52342","NA","637","2","legacy","1024","2","48000","-16","experiment","HHSHH","3","odd","41849","234892","NA","138929","NA","NA","234943","181530","1547","182548","NA","234942","235045","1543","235045","235684","Flanker Task","80","43546","81","yes","1024"
"98.7804878049","98.7804878049","537.43902439","537.43902439","black","no","legacy","legacy","legacy","0","incongruent","uniform","1","undefined","1","h","0","0","0","81","81","0","81","81","0","0","0","81","81","0","81","81","09/04/18 14:39:33","600","The main experiment item","yes","FlankerTask.osexp","C:/Users/Anabel/Desktop","no","mono","no","18","no","white","no","yes","768","legacy","1","79","C:/Users/Anabel/Desktop/AWsubject-3.csv","legacy","Jazzy James","3.1.9","0","h","NA","s","s","NA","h","524","NA","40300","52342","NA","524","2","legacy","1024","2","48000","-16","experiment","SSHSS","3","odd","41849","234892","NA","138929","235741","NA","237314","236243","1547","182548","NA","237312","237416","1543","237416","237942","Flanker Task","81","44070","82","yes","1024"
"97.5903614458","97.5903614458","535.457831325","535.457831325","black","no","legacy","legacy","legacy","0","incongruent","uniform","0","undefined","0","h","0","0","0","82","82","0","82","82","0","0","0","82","82","0","82","82","09/04/18 14:39:33","600","The main experiment item","yes","FlankerTask.osexp","C:/Users/Anabel/Desktop","no","mono","no","18","no","white","no","yes","768","legacy","2","79","C:/Users/Anabel/Desktop/AWsubject-3.csv","legacy","Jazzy James","3.1.9","0","s","NA","s","s","NA","s","373","NA","40300","52342","NA","373","2","legacy","1024","2","48000","-16","experiment","SSHSS","3","odd","41849","234892","NA","138929","235741","NA","239056","237986","1547","182548","NA","239054","239158","1543","239158","239532","Flanker Task","81","44443","83","yes","1024"
"97.619047619","97.619047619","535.880952381","535.880952381","black","no","legacy","legacy","legacy","0","incongruent","uniform","1","undefined","1","h","0","0","0","83","83","0","83","83","0","0","0","83","83","0","83","83","09/04/18 14:39:33","600","The main experiment item","yes","FlankerTask.osexp","C:/Users/Anabel/Desktop","no","mono","no","18","no","white","no","yes","768","legacy","3","79","C:/Users/Anabel/Desktop/AWsubject-3.csv","legacy","Jazzy James","3.1.9","0","h","NA","s","s","NA","h","571","NA","40300","52342","NA","571","2","legacy","1024","2","48000","-16","experiment","SSHSS","3","odd","41849","234892","NA","239585","235741","NA","241156","240087","1547","182548","NA","241154","241258","1543","241258","241831","Flanker Task","82","45014","84","yes","1024"
"97.6470588235","97.6470588235","534.764705882","534.764705882","black","no","legacy","legacy","legacy","0","incongruent","uniform","1","undefined","1","h","0","0","0","84","84","0","84","84","0","0","0","84","84","0","84","84","09/04/18 14:39:33","600","The main experiment item","yes","FlankerTask.osexp","C:/Users/Anabel/Desktop","no","mono","no","18","no","white","no","yes","768","legacy","4","79","C:/Users/Anabel/Desktop/AWsubject-3.csv","legacy","Jazzy James","3.1.9","0","h","NA","s","s","NA","h","441","NA","40300","52342","NA","441","2","legacy","1024","2","48000","-16","experiment","SSHSS","3","odd","41849","234892","NA","239585","235741","NA","242950","241875","1547","182548","NA","242948","243053","1543","243053","243495","Flanker Task","83","45455","85","yes","1024"
"97.6744186047","97.6744186047","533.627906977","533.627906977","black","no","legacy","legacy","legacy","0","congruent","uniform","1","undefined","1","h","0","0","0","85","85","0","85","85","0","0","0","85","85","0","85","85","09/04/18 14:39:33","600","The main experiment item","yes","FlankerTask.osexp","C:/Users/Anabel/Desktop","no","mono","no","18","no","white","no","yes","768","legacy","5","79","C:/Users/Anabel/Desktop/AWsubject-3.csv","legacy","Jazzy James","3.1.9","0","h","NA","s","s","NA","h","437","NA","40300","52342","NA","437","2","legacy","1024","2","48000","-16","experiment","HHHHH","3","odd","41849","234892","NA","239585","235741","NA","244615","243552","1547","182548","NA","244613","244717","1543","244717","245156","Flanker Task","84","45892","86","yes","1024"
"96.5517241379","96.5517241379","531.563218391","531.563218391","black","no","legacy","legacy","legacy","0","incongruent","uniform","0","undefined","0","h","0","0","0","86","86","0","86","86","0","0","0","86","86","0","86","86","09/04/18 14:39:33","600","The main experiment item","yes","FlankerTask.osexp","C:/Users/Anabel/Desktop","no","mono","no","18","no","white","no","yes","768","legacy","6","79","C:/Users/Anabel/Desktop/AWsubject-3.csv","legacy","Jazzy James","3.1.9","0","s","NA","s","s","NA","s","354","NA","40300","52342","NA","354","2","legacy","1024","2","48000","-16","experiment","SSHSS","3","odd","41849","234892","NA","239585","235741","NA","246244","245173","1547","182548","NA","246242","246346","1543","246346","246701","Flanker Task","84","46246","87","yes","1024"
"96.5909090909","96.5909090909","532.636363636","532.636363636","black","no","legacy","legacy","legacy","0","incongruent","uniform","1","undefined","1","s","0","0","0","87","87","0","87","87","0","0","0","87","87","0","87","87","09/04/18 14:39:33","600","The main experiment item","yes","FlankerTask.osexp","C:/Users/Anabel/Desktop","no","mono","no","18","no","white","no","yes","768","legacy","7","79","C:/Users/Anabel/Desktop/AWsubject-3.csv","legacy","Jazzy James","3.1.9","0","s","NA","s","s","NA","s","626","NA","40300","52342","NA","626","2","legacy","1024","2","48000","-16","experiment","HHSHH","3","odd","41849","234892","NA","246753","235741","NA","248325","247255","1547","182548","NA","248323","248427","1543","248427","249055","Flanker Task","85","46872","88","yes","1024"
"96.6292134831","96.6292134831","532.460674157","532.460674157","black","no","legacy","legacy","legacy","0","congruent","uniform","1","undefined","1","s","0","0","0","88","88","0","88","88","0","0","0","88","88","0","88","88","09/04/18 14:39:33","600","The main experiment item","yes","FlankerTask.osexp","C:/Users/Anabel/Desktop","no","mono","no","18","no","white","no","yes","768","legacy","8","79","C:/Users/Anabel/Desktop/AWsubject-3.csv","legacy","Jazzy James","3.1.9","0","s","NA","s","s","NA","s","517","NA","40300","52342","NA","517","2","legacy","1024","2","48000","-16","experiment","SSSSS","3","odd","41849","234892","NA","246753","249108","NA","250679","249610","1547","182548","NA","250677","250781","1543","250781","251301","Flanker Task","86","47389","89","yes","1024"
"96.6666666667","96.6666666667","530.844444444","530.844444444","black","no","legacy","legacy","legacy","0","congruent","uniform","1","undefined","1","s","0","0","0","89","89","0","89","89","0","0","0","89","89","0","89","89","09/04/18 14:39:33","600","The main experiment item","yes","FlankerTask.osexp","C:/Users/Anabel/Desktop","no","mono","no","18","no","white","no","yes","768","legacy","9","79","C:/Users/Anabel/Desktop/AWsubject-3.csv","legacy","Jazzy James","3.1.9","0","s","NA","s","s","NA","s","387","NA","40300","52342","NA","387","2","legacy","1024","2","48000","-16","experiment","SSSSS","3","odd","41849","234892","NA","246753","249108","NA","252416","251353","1547","182548","NA","252414","252518","1543","252518","252906","Flanker Task","87","47776","90","yes","1024"
"96.7032967033","96.7032967033","530.428571429","530.428571429","black","no","legacy","legacy","legacy","0","incongruent","uniform","1","undefined","1","h","0","0","0","90","90","0","90","90","0","0","0","90","90","0","90","90","09/04/18 14:39:33","600","The main experiment item","yes","FlankerTask.osexp","C:/Users/Anabel/Desktop","no","mono","no","18","no","white","no","yes","768","legacy","10","79","C:/Users/Anabel/Desktop/AWsubject-3.csv","legacy","Jazzy James","3.1.9","0","h","NA","s","s","NA","h","493","NA","40300","52342","NA","493","2","legacy","1024","2","48000","-16","experiment","SSHSS","3","odd","41849","234892","NA","246753","249108","NA","254024","252952","1547","182548","NA","254022","254126","1543","254126","254621","Flanker Task","88","48269","91","yes","1024"
"96.7391304348","96.7391304348","529.836956522","529.836956522","black","no","legacy","legacy","legacy","0","congruent","uniform","1","undefined","1","h","0","0","0","91","91","0","91","91","0","0","0","91","91","0","91","91","09/04/18 14:39:33","600","The main experiment item","yes","FlankerTask.osexp","C:/Users/Anabel/Desktop","no","mono","no","18","no","white","no","yes","768","legacy","11","79","C:/Users/Anabel/Desktop/AWsubject-3.csv","legacy","Jazzy James","3.1.9","0","h","NA","s","s","NA","h","476","NA","40300","52342","NA","476","2","legacy","1024","2","48000","-16","experiment","HHHHH","3","odd","41849","234892","NA","246753","249108","NA","255736","254664","1547","182548","NA","255733","255838","1543","255838","256316","Flanker Task","89","48745","92","yes","1024"
"96.7741935484","96.7741935484","529.311827957","529.311827957","black","no","legacy","legacy","legacy","0","congruent","uniform","1","undefined","1","s","0","0","0","92","92","0","92","92","0","0","0","92","92","0","92","92","09/04/18 14:39:33","600","The main experiment item","yes","FlankerTask.osexp","C:/Users/Anabel/Desktop","no","mono","no","18","no","white","no","yes","768","legacy","12","79","C:/Users/Anabel/Desktop/AWsubject-3.csv","legacy","Jazzy James","3.1.9","0","s","NA","s","s","NA","s","481","NA","40300","52342","NA","481","2","legacy","1024","2","48000","-16","experiment","SSSSS","3","odd","41849","234892","NA","246753","249108","NA","257482","256416","1547","182548","NA","257480","257584","1543","257584","258067","Flanker Task","90","49226","93","yes","1024"
"96.8085106383","96.8085106383","529.319148936","529.319148936","black","no","legacy","legacy","legacy","0","congruent","uniform","1","undefined","1","s","0","0","0","93","93","0","93","93","0","0","0","93","93","0","93","93","09/04/18 14:39:33","600","The main experiment item","yes","FlankerTask.osexp","C:/Users/Anabel/Desktop","no","mono","no","18","no","white","no","yes","768","legacy","13","79","C:/Users/Anabel/Desktop/AWsubject-3.csv","legacy","Jazzy James","3.1.9","0","s","NA","s","s","NA","s","530","NA","40300","52342","NA","530","2","legacy","1024","2","48000","-16","experiment","SSSSS","3","odd","41849","234892","NA","246753","249108","NA","259187","258120","1547","182548","NA","259185","259290","1543","259290","259822","Flanker Task","91","49756","94","yes","1024"
"96.8421052632","96.8421052632","529.052631579","529.052631579","black","no","legacy","legacy","legacy","0","incongruent","uniform","1","undefined","1","s","0","0","0","94","94","0","94","94","0","0","0","94","94","0","94","94","09/04/18 14:39:33","600","The main experiment item","yes","FlankerTask.osexp","C:/Users/Anabel/Desktop","no","mono","no","18","no","white","no","yes","768","legacy","14","79","C:/Users/Anabel/Desktop/AWsubject-3.csv","legacy","Jazzy James","3.1.9","0","s","NA","s","s","NA","s","504","NA","40300","52342","NA","504","2","legacy","1024","2","48000","-16","experiment","HHSHH","3","odd","41849","234892","NA","246753","249108","NA","260949","259875","1547","182548","NA","260947","261051","1543","261051","261557","Flanker Task","92","50260","95","yes","1024"
"96.875","96.875","527.875","527.875","black","no","legacy","legacy","legacy","0","incongruent","uniform","1","undefined","1","s","0","0","0","95","95","0","95","95","0","0","0","95","95","0","95","95","09/04/18 14:39:33","600","The main experiment item","yes","FlankerTask.osexp","C:/Users/Anabel/Desktop","no","mono","no","18","no","white","no","yes","768","legacy","15","79","C:/Users/Anabel/Desktop/AWsubject-3.csv","legacy","Jazzy James","3.1.9","0","s","NA","s","s","NA","s","416","NA","40300","52342","NA","416","2","legacy","1024","2","48000","-16","experiment","HHSHH","3","odd","41849","234892","NA","246753","249108","NA","262672","261608","1547","182548","NA","262670","262775","1543","262775","263192","Flanker Task","93","50676","96","yes","1024"
"96.9072164948","96.9072164948","527.226804124","527.226804124","black","no","legacy","legacy","legacy","0","congruent","uniform","1","undefined","1","h","0","0","0","96","96","0","96","96","0","0","0","96","96","0","96","96","09/04/18 14:39:33","600","The main experiment item","yes","FlankerTask.osexp","C:/Users/Anabel/Desktop","no","mono","no","18","no","white","no","yes","768","legacy","16","79","C:/Users/Anabel/Desktop/AWsubject-3.csv","legacy","Jazzy James","3.1.9","0","h","NA","s","s","NA","h","465","NA","40300","52342","NA","465","2","legacy","1024","2","48000","-16","experiment","HHHHH","3","odd","41849","234892","NA","246753","249108","NA","264328","263264","1547","182548","NA","264326","264430","1543","264430","264897","Flanker Task","94","51141","97","yes","1024"
"96.9387755102","96.9387755102","525.867346939","525.867346939","black","no","legacy","legacy","legacy","0","congruent","uniform","1","undefined","1","s","0","0","0","97","97","0","97","97","0","0","0","97","97","0","97","97","09/04/18 14:39:33","600","The main experiment item","yes","FlankerTask.osexp","C:/Users/Anabel/Desktop","no","mono","no","18","no","white","no","yes","768","legacy","17","79","C:/Users/Anabel/Desktop/AWsubject-3.csv","legacy","Jazzy James","3.1.9","0","s","NA","s","s","NA","s","394","NA","40300","52342","NA","394","2","legacy","1024","2","48000","-16","experiment","SSSSS","3","odd","41849","234892","NA","246753","249108","NA","266006","264940","1547","182548","NA","266004","266108","1543","266108","266504","Flanker Task","95","51535","98","yes","1024"
"96.9696969697","96.9696969697","525.121212121","525.121212121","black","no","legacy","legacy","legacy","0","congruent","uniform","1","undefined","1","h","0","0","0","98","98","0","98","98","0","0","0","98","98","0","98","98","09/04/18 14:39:33","600","The main experiment item","yes","FlankerTask.osexp","C:/Users/Anabel/Desktop","no","mono","no","18","no","white","no","yes","768","legacy","18","79","C:/Users/Anabel/Desktop/AWsubject-3.csv","legacy","Jazzy James","3.1.9","0","h","NA","s","s","NA","h","452","NA","40300","52342","NA","452","2","legacy","1024","2","48000","-16","experiment","HHHHH","3","odd","41849","234892","NA","246753","249108","NA","267595","266530","1547","182548","NA","267593","267697","1543","267697","268151","Flanker Task","96","51987","99","yes","1024"
"97","97","524.43","524.43","black","no","legacy","legacy","legacy","0","incongruent","uniform","1","undefined","1","s","0","0","0","99","99","0","99","99","0","0","0","99","99","0","99","99","09/04/18 14:39:33","600","The main experiment item","yes","FlankerTask.osexp","C:/Users/Anabel/Desktop","no","mono","no","18","no","white","no","yes","768","legacy","19","79","C:/Users/Anabel/Desktop/AWsubject-3.csv","legacy","Jazzy James","3.1.9","0","s","NA","s","s","NA","s","456","NA","40300","52342","NA","456","2","legacy","1024","2","48000","-16","experiment","HHSHH","3","odd","41849","234892","NA","246753","249108","NA","269267","268197","1547","182548","NA","269265","269369","1543","269369","269827","Flanker Task","97","52443","100","yes","1024"
"97.0297029703","97.0297029703","523.920792079","523.920792079","black","no","legacy","legacy","legacy","0","incongruent","uniform","1","undefined","1","h","0","0","0","100","100","0","100","100","0","0","0","100","100","0","100","100","09/04/18 14:39:33","600","The main experiment item","yes","FlankerTask.osexp","C:/Users/Anabel/Desktop","no","mono","no","18","no","white","no","yes","768","legacy","20","79","C:/Users/Anabel/Desktop/AWsubject-3.csv","legacy","Jazzy James","3.1.9","0","h","NA","s","s","NA","h","473","NA","40300","52342","NA","473","2","legacy","1024","2","48000","-16","experiment","SSHSS","3","odd","41849","234892","NA","246753","249108","NA","270945","269875","1547","182548","NA","270943","271047","1543","271047","271522","Flanker Task","98","52916","101","yes","1024"
"97.0588235294","97.0588235294","522.735294118","522.735294118","black","no","legacy","legacy","legacy","0","incongruent","uniform","1","undefined","1","h","0","0","0","101","101","0","101","101","0","0","0","101","101","0","101","101","09/04/18 14:39:33","600","The main experiment item","yes","FlankerTask.osexp","C:/Users/Anabel/Desktop","no","mono","no","18","no","white","no","yes","768","legacy","21","79","C:/Users/Anabel/Desktop/AWsubject-3.csv","legacy","Jazzy James","3.1.9","0","h","NA","s","s","NA","h","403","NA","40300","52342","NA","403","2","legacy","1024","2","48000","-16","experiment","SSHSS","3","odd","41849","234892","NA","246753","249108","NA","272638","271575","1547","182548","NA","272636","272740","1543","272740","273145","Flanker Task","99","53319","102","yes","1024"
"97.0873786408","97.0873786408","521.990291262","521.990291262","black","no","legacy","legacy","legacy","0","incongruent","uniform","1","undefined","1","h","0","0","0","102","102","0","102","102","0","0","0","102","102","0","102","102","09/04/18 14:39:33","600","The main experiment item","yes","FlankerTask.osexp","C:/Users/Anabel/Desktop","no","mono","no","18","no","white","no","yes","768","legacy","22","79","C:/Users/Anabel/Desktop/AWsubject-3.csv","legacy","Jazzy James","3.1.9","0","h","NA","s","s","NA","h","446","NA","40300","52342","NA","446","2","legacy","1024","2","48000","-16","experiment","SSHSS","3","odd","41849","234892","NA","246753","249108","NA","274270","273197","1547","182548","NA","274268","274372","1543","274372","274819","Flanker Task","100","53765","103","yes","1024"
"97.1153846154","97.1153846154","521.048076923","521.048076923","black","no","legacy","legacy","legacy","0","congruent","uniform","1","undefined","1","h","0","0","0","103","103","0","103","103","0","0","0","103","103","0","103","103","09/04/18 14:39:33","600","The main experiment item","yes","FlankerTask.osexp","C:/Users/Anabel/Desktop","no","mono","no","18","no","white","no","yes","768","legacy","23","79","C:/Users/Anabel/Desktop/AWsubject-3.csv","legacy","Jazzy James","3.1.9","0","h","NA","s","s","NA","h","424","NA","40300","52342","NA","424","2","legacy","1024","2","48000","-16","experiment","HHHHH","3","odd","41849","234892","NA","246753","249108","NA","275931","274864","1547","182548","NA","275929","276033","1543","276033","276459","Flanker Task","101","54189","104","yes","1024"
"96.1904761905","96.1904761905","520.123809524","520.123809524","black","no","legacy","legacy","legacy","0","incongruent","uniform","0","undefined","0","h","0","0","0","104","104","0","104","104","0","0","0","104","104","0","104","104","09/04/18 14:39:33","600","The main experiment item","yes","FlankerTask.osexp","C:/Users/Anabel/Desktop","no","mono","no","18","no","white","no","yes","768","legacy","24","79","C:/Users/Anabel/Desktop/AWsubject-3.csv","legacy","Jazzy James","3.1.9","0","s","NA","s","s","NA","s","424","NA","40300","52342","NA","424","2","legacy","1024","2","48000","-16","experiment","SSHSS","3","odd","41849","234892","NA","246753","249108","NA","277577","276508","1547","182548","NA","277575","277679","1543","277679","278105","Flanker Task","101","54613","105","yes","1024"
"96.2264150943","96.2264150943","521.70754717","521.70754717","black","no","legacy","legacy","legacy","0","incongruent","uniform","1","undefined","1","s","0","0","0","105","105","0","105","105","0","0","0","105","105","0","105","105","09/04/18 14:39:33","600","The main experiment item","yes","FlankerTask.osexp","C:/Users/Anabel/Desktop","no","mono","no","18","no","white","no","yes","768","legacy","25","79","C:/Users/Anabel/Desktop/AWsubject-3.csv","legacy","Jazzy James","3.1.9","0","s","NA","s","s","NA","s","688","NA","40300","52342","NA","688","2","legacy","1024","2","48000","-16","experiment","HHSHH","3","odd","41849","234892","NA","278152","249108","NA","279729","278655","1547","182548","NA","279726","279831","1543","279831","280521","Flanker Task","102","55301","106","yes","1024"
"96.261682243","96.261682243","521.495327103","521.495327103","black","no","legacy","legacy","legacy","0","congruent","uniform","1","undefined","1","h","0","0","0","106","106","0","106","106","0","0","0","106","106","0","106","106","09/04/18 14:39:33","600","The main experiment item","yes","FlankerTask.osexp","C:/Users/Anabel/Desktop","no","mono","no","18","no","white","no","yes","768","legacy","26","79","C:/Users/Anabel/Desktop/AWsubject-3.csv","legacy","Jazzy James","3.1.9","0","h","NA","s","s","NA","h","499","NA","40300","52342","NA","499","2","legacy","1024","2","48000","-16","experiment","HHHHH","3","odd","41849","234892","NA","278152","280575","NA","282141","281077","1547","182548","NA","282139","282243","1543","282243","282744","Flanker Task","103","55800","107","yes","1024"
"96.2962962963","96.2962962963","521.361111111","521.361111111","black","no","legacy","legacy","legacy","0","congruent","uniform","1","undefined","1","s","0","0","0","107","107","0","107","107","0","0","0","107","107","0","107","107","09/04/18 14:39:33","600","The main experiment item","yes","FlankerTask.osexp","C:/Users/Anabel/Desktop","no","mono","no","18","no","white","no","yes","768","legacy","27","79","C:/Users/Anabel/Desktop/AWsubject-3.csv","legacy","Jazzy James","3.1.9","0","s","NA","s","s","NA","s","507","NA","40300","52342","NA","507","2","legacy","1024","2","48000","-16","experiment","SSSSS","3","odd","41849","234892","NA","278152","280575","NA","283869","282796","1547","182548","NA","283867","283971","1543","283971","284480","Flanker Task","104","56307","108","yes","1024"
"96.3302752294","96.3302752294","520.688073394","520.688073394","black","no","legacy","legacy","legacy","0","congruent","uniform","1","undefined","1","h","0","0","0","108","108","0","108","108","0","0","0","108","108","0","108","108","09/04/18 14:39:33","600","The main experiment item","yes","FlankerTask.osexp","C:/Users/Anabel/Desktop","no","mono","no","18","no","white","no","yes","768","legacy","28","79","C:/Users/Anabel/Desktop/AWsubject-3.csv","legacy","Jazzy James","3.1.9","0","h","NA","s","s","NA","h","448","NA","40300","52342","NA","448","2","legacy","1024","2","48000","-16","experiment","HHHHH","3","odd","41849","234892","NA","278152","280575","NA","285593","284530","1547","182548","NA","285592","285696","1543","285696","286146","Flanker Task","105","56755","109","yes","1024"
"96.3636363636","96.3636363636","519.590909091","519.590909091","black","no","legacy","legacy","legacy","0","incongruent","uniform","1","undefined","1","h","0","0","0","109","109","0","109","109","0","0","0","109","109","0","109","109","09/04/18 14:39:33","600","The main experiment item","yes","FlankerTask.osexp","C:/Users/Anabel/Desktop","no","mono","no","18","no","white","no","yes","768","legacy","29","79","C:/Users/Anabel/Desktop/AWsubject-3.csv","legacy","Jazzy James","3.1.9","0","h","NA","s","s","NA","h","400","NA","40300","52342","NA","400","2","legacy","1024","2","48000","-16","experiment","SSHSS","3","odd","41849","234892","NA","278152","280575","NA","287267","286197","1547","182548","NA","287265","287368","1543","287368","287770","Flanker Task","106","57155","110","yes","1024"
"96.3963963964","96.3963963964","519.495495495","519.495495495","black","no","legacy","legacy","legacy","0","incongruent","uniform","1","undefined","1","s","0","0","0","110","110","0","110","110","0","0","0","110","110","0","110","110","09/04/18 14:39:33","600","The main experiment item","yes","FlankerTask.osexp","C:/Users/Anabel/Desktop","no","mono","no","18","no","white","no","yes","768","legacy","30","79","C:/Users/Anabel/Desktop/AWsubject-3.csv","legacy","Jazzy James","3.1.9","0","s","NA","s","s","NA","s","509","NA","40300","52342","NA","509","2","legacy","1024","2","48000","-16","experiment","HHSHH","3","odd","41849","234892","NA","278152","280575","NA","288888","287819","1547","182548","NA","288885","288990","1543","288990","289501","Flanker Task","107","57664","111","yes","1024"
"96.4285714286","96.4285714286","519.821428571","519.821428571","black","no","legacy","legacy","legacy","0","incongruent","uniform","1","undefined","1","s","0","0","0","111","111","0","111","111","0","0","0","111","111","0","111","111","09/04/18 14:39:33","600","The main experiment item","yes","FlankerTask.osexp","C:/Users/Anabel/Desktop","no","mono","no","18","no","white","no","yes","768","legacy","31","79","C:/Users/Anabel/Desktop/AWsubject-3.csv","legacy","Jazzy James","3.1.9","0","s","NA","s","s","NA","s","556","NA","40300","52342","NA","556","2","legacy","1024","2","48000","-16","experiment","HHSHH","3","odd","41849","234892","NA","278152","280575","NA","290624","289553","1547","182548","NA","290622","290727","1543","290727","291285","Flanker Task","108","58220","112","yes","1024"
"96.4601769912","96.4601769912","518.522123894","518.522123894","black","no","legacy","legacy","legacy","0","incongruent","uniform","1","undefined","1","s","0","0","0","112","112","0","112","112","0","0","0","112","112","0","112","112","09/04/18 14:39:33","600","The main experiment item","yes","FlankerTask.osexp","C:/Users/Anabel/Desktop","no","mono","no","18","no","white","no","yes","768","legacy","32","79","C:/Users/Anabel/Desktop/AWsubject-3.csv","legacy","Jazzy James","3.1.9","0","s","NA","s","s","NA","s","373","NA","40300","52342","NA","373","2","legacy","1024","2","48000","-16","experiment","HHSHH","3","odd","41849","234892","NA","278152","280575","NA","292399","291331","1547","182548","NA","292397","292501","1543","292501","292876","Flanker Task","109","58593","113","yes","1024"
"96.4912280702","96.4912280702","517.543859649","517.543859649","black","no","legacy","legacy","legacy","0","congruent","uniform","1","undefined","1","s","0","0","0","113","113","0","113","113","0","0","0","113","113","0","113","113","09/04/18 14:39:33","600","The main experiment item","yes","FlankerTask.osexp","C:/Users/Anabel/Desktop","no","mono","no","18","no","white","no","yes","768","legacy","33","79","C:/Users/Anabel/Desktop/AWsubject-3.csv","legacy","Jazzy James","3.1.9","0","s","NA","s","s","NA","s","407","NA","40300","52342","NA","407","2","legacy","1024","2","48000","-16","experiment","SSSSS","3","odd","41849","234892","NA","278152","280575","NA","293987","292919","1547","182548","NA","293985","294090","1543","294090","294499","Flanker Task","110","59000","114","yes","1024"
"96.5217391304","96.5217391304","517.191304348","517.191304348","black","no","legacy","legacy","legacy","0","congruent","uniform","1","undefined","1","h","0","0","0","114","114","0","114","114","0","0","0","114","114","0","114","114","09/04/18 14:39:33","600","The main experiment item","yes","FlankerTask.osexp","C:/Users/Anabel/Desktop","no","mono","no","18","no","white","no","yes","768","legacy","34","79","C:/Users/Anabel/Desktop/AWsubject-3.csv","legacy","Jazzy James","3.1.9","0","h","NA","s","s","NA","h","477","NA","40300","52342","NA","477","2","legacy","1024","2","48000","-16","experiment","HHHHH","3","odd","41849","234892","NA","278152","280575","NA","295614","294550","1547","182548","NA","295612","295716","1543","295716","296196","Flanker Task","111","59477","115","yes","1024"
"96.5517241379","96.5517241379","518.362068966","518.362068966","black","no","legacy","legacy","legacy","0","congruent","uniform","1","undefined","1","s","0","0","0","115","115","0","115","115","0","0","0","115","115","0","115","115","09/04/18 14:39:33","600","The main experiment item","yes","FlankerTask.osexp","C:/Users/Anabel/Desktop","no","mono","no","18","no","white","no","yes","768","legacy","35","79","C:/Users/Anabel/Desktop/AWsubject-3.csv","legacy","Jazzy James","3.1.9","0","s","NA","s","s","NA","s","653","NA","40300","52342","NA","653","2","legacy","1024","2","48000","-16","experiment","SSSSS","3","odd","41849","234892","NA","278152","280575","NA","297328","296264","1547","182548","NA","297326","297430","1543","297430","298085","Flanker Task","112","60130","116","yes","1024"
"96.5811965812","96.5811965812","518.179487179","518.179487179","black","no","legacy","legacy","legacy","0","incongruent","uniform","1","undefined","1","s","0","0","0","116","116","0","116","116","0","0","0","116","116","0","116","116","09/04/18 14:39:33","600","The main experiment item","yes","FlankerTask.osexp","C:/Users/Anabel/Desktop","no","mono","no","18","no","white","no","yes","768","legacy","36","79","C:/Users/Anabel/Desktop/AWsubject-3.csv","legacy","Jazzy James","3.1.9","0","s","NA","s","s","NA","s","497","NA","40300","52342","NA","497","2","legacy","1024","2","48000","-16","experiment","HHSHH","3","odd","41849","234892","NA","278152","298130","NA","299694","298632","1547","182548","NA","299692","299796","1543","299796","300295","Flanker Task","113","60627","117","yes","1024"
"96.6101694915","96.6101694915","518.169491525","518.169491525","black","no","legacy","legacy","legacy","0","incongruent","uniform","1","undefined","1","h","0","0","0","117","117","0","117","117","0","0","0","117","117","0","117","117","09/04/18 14:39:33","600","The main experiment item","yes","FlankerTask.osexp","C:/Users/Anabel/Desktop","no","mono","no","18","no","white","no","yes","768","legacy","37","79","C:/Users/Anabel/Desktop/AWsubject-3.csv","legacy","Jazzy James","3.1.9","0","h","NA","s","s","NA","h","517","NA","40300","52342","NA","517","2","legacy","1024","2","48000","-16","experiment","SSHSS","3","odd","41849","234892","NA","278152","298130","NA","301383","300320","1547","182548","NA","301381","301485","1543","301485","302004","Flanker Task","114","61144","118","yes","1024"
"96.6386554622","96.6386554622","517.865546218","517.865546218","black","no","legacy","legacy","legacy","0","incongruent","uniform","1","undefined","1","s","0","0","0","118","118","0","118","118","0","0","0","118","118","0","118","118","09/04/18 14:39:33","600","The main experiment item","yes","FlankerTask.osexp","C:/Users/Anabel/Desktop","no","mono","no","18","no","white","no","yes","768","legacy","38","79","C:/Users/Anabel/Desktop/AWsubject-3.csv","legacy","Jazzy James","3.1.9","0","s","NA","s","s","NA","s","482","NA","40300","52342","NA","482","2","legacy","1024","2","48000","-16","experiment","HHSHH","3","odd","41849","234892","NA","278152","298130","NA","303115","302051","1547","182548","NA","303113","303217","1543","303217","303701","Flanker Task","115","61626","119","yes","1024"
"96.6666666667","96.6666666667","517.366666667","517.366666667","black","no","legacy","legacy","legacy","0","incongruent","uniform","1","undefined","1","h","0","0","0","119","119","0","119","119","0","0","0","119","119","0","119","119","09/04/18 14:39:33","600","The main experiment item","yes","FlankerTask.osexp","C:/Users/Anabel/Desktop","no","mono","no","18","no","white","no","yes","768","legacy","39","79","C:/Users/Anabel/Desktop/AWsubject-3.csv","legacy","Jazzy James","3.1.9","0","h","NA","s","s","NA","h","458","NA","40300","52342","NA","458","2","legacy","1024","2","48000","-16","experiment","SSHSS","3","odd","41849","234892","NA","278152","298130","NA","304820","303753","1547","182548","NA","304818","304923","1543","304923","305383","Flanker Task","116","62084","120","yes","1024"
"95.867768595","95.867768595","516.892561983","516.892561983","black","no","legacy","legacy","legacy","0","congruent","uniform","0","undefined","0","s","0","0","0","120","120","0","120","120","0","0","0","120","120","0","120","120","09/04/18 14:39:33","600","The main experiment item","yes","FlankerTask.osexp","C:/Users/Anabel/Desktop","no","mono","no","18","no","white","no","yes","768","legacy","40","79","C:/Users/Anabel/Desktop/AWsubject-3.csv","legacy","Jazzy James","3.1.9","0","h","NA","s","s","NA","h","460","NA","40300","52342","NA","460","2","legacy","1024","2","48000","-16","experiment","SSSSS","3","odd","41849","234892","NA","278152","298130","NA","306472","305396","1547","182548","NA","306470","306574","1543","306574","307036","Flanker Task","116","62544","121","yes","1024"
"95.9016393443","95.9016393443","517.401639344","517.401639344","black","no","legacy","legacy","legacy","0","incongruent","uniform","1","undefined","1","h","0","0","0","121","121","0","121","121","0","0","0","121","121","0","121","121","09/04/18 14:39:33","600","The main experiment item","yes","FlankerTask.osexp","C:/Users/Anabel/Desktop","no","mono","no","18","no","white","no","yes","768","legacy","41","79","C:/Users/Anabel/Desktop/AWsubject-3.csv","legacy","Jazzy James","3.1.9","0","h","NA","s","s","NA","h","579","NA","40300","52342","NA","579","2","legacy","1024","2","48000","-16","experiment","SSHSS","3","odd","41849","234892","NA","307086","298130","NA","308656","307588","1547","182548","NA","308654","308758","1543","308758","309339","Flanker Task","117","63123","122","yes","1024"
"95.9349593496","95.9349593496","516.81300813","516.81300813","black","no","legacy","legacy","legacy","0","congruent","uniform","1","undefined","1","s","0","0","0","122","122","0","122","122","0","0","0","122","122","0","122","122","09/04/18 14:39:33","600","The main experiment item","yes","FlankerTask.osexp","C:/Users/Anabel/Desktop","no","mono","no","18","no","white","no","yes","768","legacy","42","79","C:/Users/Anabel/Desktop/AWsubject-3.csv","legacy","Jazzy James","3.1.9","0","s","NA","s","s","NA","s","445","NA","40300","52342","NA","445","2","legacy","1024","2","48000","-16","experiment","SSSSS","3","odd","41849","234892","NA","307086","298130","NA","310455","309386","1547","182548","NA","310453","310558","1543","310558","311005","Flanker Task","118","63568","123","yes","1024"
"95.9677419355","95.9677419355","517.508064516","517.508064516","black","no","legacy","legacy","legacy","0","incongruent","uniform","1","undefined","1","h","0","0","0","123","123","0","123","123","0","0","0","123","123","0","123","123","09/04/18 14:39:33","600","The main experiment item","yes","FlankerTask.osexp","C:/Users/Anabel/Desktop","no","mono","no","18","no","white","no","yes","768","legacy","43","79","C:/Users/Anabel/Desktop/AWsubject-3.csv","legacy","Jazzy James","3.1.9","0","h","NA","s","s","NA","h","603","NA","40300","52342","NA","603","2","legacy","1024","2","48000","-16","experiment","SSHSS","3","odd","41849","234892","NA","307086","298130","NA","312102","311030","1547","182548","NA","312100","312204","1543","312204","312809","Flanker Task","119","64171","124","yes","1024"
"96","96","517.144","517.144","black","no","legacy","legacy","legacy","0","incongruent","uniform","1","undefined","1","s","0","0","0","124","124","0","124","124","0","0","0","124","124","0","124","124","09/04/18 14:39:33","600","The main experiment item","yes","FlankerTask.osexp","C:/Users/Anabel/Desktop","no","mono","no","18","no","white","no","yes","768","legacy","44","79","C:/Users/Anabel/Desktop/AWsubject-3.csv","legacy","Jazzy James","3.1.9","0","s","NA","s","s","NA","s","472","NA","40300","52342","NA","472","2","legacy","1024","2","48000","-16","experiment","HHSHH","3","odd","41849","234892","NA","307086","312853","NA","314421","313355","1547","182548","NA","314419","314523","1543","314523","314997","Flanker Task","120","64643","125","yes","1024"
"96.0317460317","96.0317460317","516.333333333","516.333333333","black","no","legacy","legacy","legacy","0","incongruent","uniform","1","undefined","1","s","0","0","0","125","125","0","125","125","0","0","0","125","125","0","125","125","09/04/18 14:39:33","600","The main experiment item","yes","FlankerTask.osexp","C:/Users/Anabel/Desktop","no","mono","no","18","no","white","no","yes","768","legacy","45","79","C:/Users/Anabel/Desktop/AWsubject-3.csv","legacy","Jazzy James","3.1.9","0","s","NA","s","s","NA","s","415","NA","40300","52342","NA","415","2","legacy","1024","2","48000","-16","experiment","HHSHH","3","odd","41849","234892","NA","307086","312853","NA","316104","315041","1547","182548","NA","316102","316206","1543","316206","316623","Flanker Task","121","65058","126","yes","1024"
"96.062992126","96.062992126","515.874015748","515.874015748","black","no","legacy","legacy","legacy","0","congruent","uniform","1","undefined","1","s","0","0","0","126","126","0","126","126","0","0","0","126","126","0","126","126","09/04/18 14:39:33","600","The main experiment item","yes","FlankerTask.osexp","C:/Users/Anabel/Desktop","no","mono","no","18","no","white","no","yes","768","legacy","46","79","C:/Users/Anabel/Desktop/AWsubject-3.csv","legacy","Jazzy James","3.1.9","0","s","NA","s","s","NA","s","458","NA","40300","52342","NA","458","2","legacy","1024","2","48000","-16","experiment","SSSSS","3","odd","41849","234892","NA","307086","312853","NA","317732","316675","1547","182548","NA","317730","317834","1543","317834","318294","Flanker Task","122","65516","127","yes","1024"
"96.09375","96.09375","514.796875","514.796875","black","no","legacy","legacy","legacy","0","congruent","uniform","1","undefined","1","s","0","0","0","127","127","0","127","127","0","0","0","127","127","0","127","127","09/04/18 14:39:33","600","The main experiment item","yes","FlankerTask.osexp","C:/Users/Anabel/Desktop","no","mono","no","18","no","white","no","yes","768","legacy","47","79","C:/Users/Anabel/Desktop/AWsubject-3.csv","legacy","Jazzy James","3.1.9","0","s","NA","s","s","NA","s","378","NA","40300","52342","NA","378","2","legacy","1024","2","48000","-16","experiment","SSSSS","3","odd","41849","234892","NA","307086","312853","NA","319392","318319","1547","182548","NA","319390","319494","1543","319494","319876","Flanker Task","123","65894","128","yes","1024"
