"acc","accuracy","average_response_time","avg_rt","background","bidi","canvas_backend","clock_backend","color_backend","compensation","condition","coordinates","correct","correct_instructions1","correct_keyboard_response","correct_response","count_ISI","count_blcok1","count_block2","count_block3","count_errorFeedback","count_experiment","count_faster","count_finish","count_fixation","count_instructions1","count_instructions2","count_instructions3","count_keyboard_response","count_new_logger","count_sequence","count_stimulus","datetime","deadline","description","disable_garbage_collection","experiment_path","font_bold","font_family","font_italic","font_size","font_underline","foreground","form_clicks","fullscreen","height","keyboard_backend","live_row","live_row_blcok1","logfile","mouse_backend","opensesame_codename","opensesame_version","repeat_cycle","response","response_finish","response_instructions1","response_instructions2","response_instructions3","response_keyboard_response","response_time","response_time_finish","response_time_instructions1","response_time_instructions2","response_time_instructions3","response_time_keyboard_response","round_decimals","sampler_backend","sound_buf_size","sound_channels","sound_freq","sound_sample_size","start","stimulus","subject_nr","subject_parity","time_ISI","time_blcok1","time_block2","time_block3","time_errorFeedback","time_experiment","time_faster","time_finish","time_fixation","time_instructions1","time_instructions2","time_instructions3","time_keyboard_response","time_new_logger","time_sequence","time_stimulus","title","total_correct","total_response_time","total_responses","uniform_coordinates","width"
"100","100","1470","1470","black","no","legacy","legacy","legacy","0","congruent","uniform","1","undefined","1","s","0","0","0","0","0","0","0","0","0","0","0","0","0","0","0","0","09/09/18 21:44:13","1500","The main experiment item","yes","F:\","no","mono","no","18","no","white","no","yes","768","legacy","0","0","F:/mc-subject-3.csv","legacy","Jazzy James","3.1.9","0","s","NA","h","NA","NA","s","1470","NA","51394","NA","NA","1470","2","legacy","1024","2","48000","-16","experiment","SSSSS","3","odd","NA","61413","NA","NA","NA","10012","NA","NA","61537","10017","NA","NA","61651","63123","61533","61650","Flanker","1","1470","1","yes","1024"
"50","50","979","979","black","no","legacy","legacy","legacy","0","incongruent","uniform","0","undefined","0","s","1","0","0","0","1","0","1","0","1","0","0","0","1","1","1","1","09/09/18 21:44:13","1500","The main experiment item","yes","F:\","no","mono","no","18","no","white","no","yes","768","legacy","1","1","F:/mc-subject-3.csv","legacy","Jazzy James","3.1.9","0","h","NA","h","NA","NA","h","488","NA","51394","NA","NA","488","2","legacy","1024","2","48000","-16","experiment","HHSHH","3","odd","63167","61413","NA","NA","NA","10012","NA","NA","64276","10017","NA","NA","64379","64869","64271","64379","Flanker","1","1958","2","yes","1024"
"33.3333333333","33.3333333333","1152.66666667","1152.66666667","black","no","legacy","legacy","legacy","0","incongruent","uniform","0","undefined","0","h","2","0","0","0","2","0","2","0","2","0","0","0","2","2","2","2","09/09/18 21:44:13","1500","The main experiment item","yes","F:\","no","mono","no","18","no","white","no","yes","768","legacy","2","2","F:/mc-subject-3.csv","legacy","Jazzy James","3.1.9","0","None","NA","h","NA","NA","None","1500","NA","51394","NA","NA","1500","2","legacy","1024","2","48000","-16","experiment","SSHSS","3","odd","65391","61413","NA","NA","64886","10012","NA","NA","66521","10017","NA","NA","66625","68126","66517","66625","Flanker","1","3458","3","yes","1024"
"50","50","1029","1029","black","no","legacy","legacy","legacy","0","congruent","uniform","1","undefined","1","s","3","0","0","0","3","0","3","0","3","0","0","0","3","3","3","3","09/09/18 21:44:13","1500","The main experiment item","yes","F:\","no","mono","no","18","no","white","no","yes","768","legacy","3","3","F:/mc-subject-3.csv","legacy","Jazzy James","3.1.9","0","s","NA","h","NA","NA","s","658","NA","51394","NA","NA","658","2","legacy","1024","2","48000","-16","experiment","SSSSS","3","odd","68643","61413","NA","NA","68140","10012","NA","NA","69743","10017","NA","NA","69846","70505","69738","69846","Flanker","2","4116","4","yes","1024"
"60","60","938.4","938.4","black","no","legacy","legacy","legacy","0","incongruent","uniform","1","undefined","1","h","4","0","0","0","4","0","4","0","4","0","0","0","4","4","4","4","09/09/18 21:44:13","1500","The main experiment item","yes","F:\","no","mono","no","18","no","white","no","yes","768","legacy","4","4","F:/mc-subject-3.csv","legacy","Jazzy James","3.1.9","0","h","NA","h","NA","NA","h","576","NA","51394","NA","NA","576","2","legacy","1024","2","48000","-16","experiment","SSHSS","3","odd","70641","61413","NA","NA","68140","10012","NA","NA","71747","10017","NA","NA","71850","72428","71742","71850","Flanker","3","4692","5","yes","1024"
"66.6666666667","66.6666666667","861.666666667","861.666666667","black","no","legacy","legacy","legacy","0","incongruent","uniform","1","undefined","1","s","5","0","0","0","5","0","5","0","5","0","0","0","5","5","5","5","09/09/18 21:44:13","1500","The main experiment item","yes","F:\","no","mono","no","18","no","white","no","yes","768","legacy","5","5","F:/mc-subject-3.csv","legacy","Jazzy James","3.1.9","0","s","NA","h","NA","NA","s","478","NA","51394","NA","NA","478","2","legacy","1024","2","48000","-16","experiment","HHSHH","3","odd","72442","61413","NA","NA","68140","10012","NA","NA","73545","10017","NA","NA","73648","74127","73541","73647","Flanker","4","5170","6","yes","1024"
"71.4285714286","71.4285714286","832.714285714","832.714285714","black","no","legacy","legacy","legacy","0","congruent","uniform","1","undefined","1","h","6","0","0","0","6","0","6","0","6","0","0","0","6","6","6","6","09/09/18 21:44:13","1500","The main experiment item","yes","F:\","no","mono","no","18","no","white","no","yes","768","legacy","6","6","F:/mc-subject-3.csv","legacy","Jazzy James","3.1.9","0","h","NA","h","NA","NA","h","659","NA","51394","NA","NA","659","2","legacy","1024","2","48000","-16","experiment","HHHHH","3","odd","74140","61413","NA","NA","68140","10012","NA","NA","75246","10017","NA","NA","75349","76010","75242","75349","Flanker","5","5829","7","yes","1024"
"62.5","62.5","783.375","783.375","black","no","legacy","legacy","legacy","0","congruent","uniform","0","undefined","0","h","7","0","0","0","7","0","7","0","7","0","0","0","7","7","7","7","09/09/18 21:44:13","1500","The main experiment item","yes","F:\","no","mono","no","18","no","white","no","yes","768","legacy","7","7","F:/mc-subject-3.csv","legacy","Jazzy James","3.1.9","0","s","NA","h","NA","NA","s","438","NA","51394","NA","NA","438","2","legacy","1024","2","48000","-16","experiment","HHHHH","3","odd","76022","61413","NA","NA","68140","10012","NA","NA","77122","10017","NA","NA","77225","77664","77118","77224","Flanker","5","6267","8","yes","1024"
"66.6666666667","66.6666666667","764","764","black","no","legacy","legacy","legacy","0","congruent","uniform","1","undefined","1","s","8","0","0","0","8","0","8","0","8","0","0","0","8","8","8","8","09/09/18 21:44:13","1500","The main experiment item","yes","F:\","no","mono","no","18","no","white","no","yes","768","legacy","8","8","F:/mc-subject-3.csv","legacy","Jazzy James","3.1.9","0","s","NA","h","NA","NA","s","609","NA","51394","NA","NA","609","2","legacy","1024","2","48000","-16","experiment","SSSSS","3","odd","78181","61413","NA","NA","77677","10012","NA","NA","79280","10017","NA","NA","79383","79993","79276","79382","Flanker","6","6876","9","yes","1024"
"70","70","760.8","760.8","black","no","legacy","legacy","legacy","0","incongruent","uniform","1","undefined","1","s","9","0","0","0","9","0","9","0","9","0","0","0","9","9","9","9","09/09/18 21:44:13","1500","The main experiment item","yes","F:\","no","mono","no","18","no","white","no","yes","768","legacy","9","9","F:/mc-subject-3.csv","legacy","Jazzy James","3.1.9","0","s","NA","h","NA","NA","s","732","NA","51394","NA","NA","732","2","legacy","1024","2","48000","-16","experiment","HHSHH","3","odd","80004","61413","NA","NA","77677","10012","NA","NA","81121","10017","NA","NA","81226","81960","81115","81226","Flanker","7","7608","10","yes","1024"
"72.7272727273","72.7272727273","741","741","black","no","legacy","legacy","legacy","0","congruent","uniform","1","undefined","1","s","10","0","0","0","10","0","10","0","10","0","0","0","10","10","10","10","09/09/18 21:44:13","1500","The main experiment item","yes","F:\","no","mono","no","18","no","white","no","yes","768","legacy","10","10","F:/mc-subject-3.csv","legacy","Jazzy James","3.1.9","0","s","NA","h","NA","NA","s","543","NA","51394","NA","NA","543","2","legacy","1024","2","48000","-16","experiment","SSSSS","3","odd","81978","61413","NA","NA","77677","10012","NA","NA","83093","10017","NA","NA","83196","83742","83087","83196","Flanker","8","8151","11","yes","1024"
"75","75","727","727","black","no","legacy","legacy","legacy","0","incongruent","uniform","1","undefined","1","h","11","0","0","0","11","0","11","0","11","0","0","0","11","11","11","11","09/09/18 21:44:13","1500","The main experiment item","yes","F:\","no","mono","no","18","no","white","no","yes","768","legacy","11","11","F:/mc-subject-3.csv","legacy","Jazzy James","3.1.9","0","h","NA","h","NA","NA","h","573","NA","51394","NA","NA","573","2","legacy","1024","2","48000","-16","experiment","SSHSS","3","odd","83757","61413","NA","NA","77677","10012","NA","NA","84871","10017","NA","NA","84974","85549","84866","84974","Flanker","9","8724","12","yes","1024"
"76.9230769231","76.9230769231","715.307692308","715.307692308","black","no","legacy","legacy","legacy","0","incongruent","uniform","1","undefined","1","h","12","0","0","0","12","0","12","0","12","0","0","0","12","12","12","12","09/09/18 21:44:13","1500","The main experiment item","yes","F:\","no","mono","no","18","no","white","no","yes","768","legacy","12","12","F:/mc-subject-3.csv","legacy","Jazzy James","3.1.9","0","h","NA","h","NA","NA","h","575","NA","51394","NA","NA","575","2","legacy","1024","2","48000","-16","experiment","SSHSS","3","odd","85562","61413","NA","NA","77677","10012","NA","NA","86675","10017","NA","NA","86779","87356","86671","86779","Flanker","10","9299","13","yes","1024"
"78.5714285714","78.5714285714","700.642857143","700.642857143","black","no","legacy","legacy","legacy","0","congruent","uniform","1","undefined","1","s","13","0","0","0","13","0","13","0","13","0","0","0","13","13","13","13","09/09/18 21:44:13","1500","The main experiment item","yes","F:\","no","mono","no","18","no","white","no","yes","768","legacy","13","13","F:/mc-subject-3.csv","legacy","Jazzy James","3.1.9","0","s","NA","h","NA","NA","s","510","NA","51394","NA","NA","510","2","legacy","1024","2","48000","-16","experiment","SSSSS","3","odd","87369","61413","NA","NA","77677","10012","NA","NA","88484","10017","NA","NA","88587","89098","88479","88587","Flanker","11","9809","14","yes","1024"
"80","80","707.933333333","707.933333333","black","no","legacy","legacy","legacy","0","incongruent","uniform","1","undefined","1","s","14","0","0","0","14","0","14","0","14","0","0","0","14","14","14","14","09/09/18 21:44:13","1500","The main experiment item","yes","F:\","no","mono","no","18","no","white","no","yes","768","legacy","14","14","F:/mc-subject-3.csv","legacy","Jazzy James","3.1.9","0","s","NA","h","NA","NA","s","810","NA","51394","NA","NA","810","2","legacy","1024","2","48000","-16","experiment","HHSHH","3","odd","89112","61413","NA","NA","77677","10012","NA","NA","90225","10017","NA","NA","90330","91142","90221","90329","Flanker","12","10619","15","yes","1024"
"81.25","81.25","690.1875","690.1875","black","no","legacy","legacy","legacy","0","incongruent","uniform","1","undefined","1","h","15","0","0","0","15","0","15","0","15","0","0","0","15","15","15","15","09/09/18 21:44:13","1500","The main experiment item","yes","F:\","no","mono","no","18","no","white","no","yes","768","legacy","15","15","F:/mc-subject-3.csv","legacy","Jazzy James","3.1.9","0","h","NA","h","NA","NA","h","424","NA","51394","NA","NA","424","2","legacy","1024","2","48000","-16","experiment","SSHSS","3","odd","91155","61413","NA","NA","77677","10012","NA","NA","92270","10017","NA","NA","92373","92799","92265","92373","Flanker","13","11043","16","yes","1024"
"82.3529411765","82.3529411765","683.352941176","683.352941176","black","no","legacy","legacy","legacy","0","incongruent","uniform","1","undefined","1","s","16","0","0","0","16","0","16","0","16","0","0","0","16","16","16","16","09/09/18 21:44:13","1500","The main experiment item","yes","F:\","no","mono","no","18","no","white","no","yes","768","legacy","16","16","F:/mc-subject-3.csv","legacy","Jazzy James","3.1.9","0","s","NA","h","NA","NA","s","574","NA","51394","NA","NA","574","2","legacy","1024","2","48000","-16","experiment","HHSHH","3","odd","92814","61413","NA","NA","77677","10012","NA","NA","93928","10017","NA","NA","94033","94609","93924","94032","Flanker","14","11617","17","yes","1024"
"83.3333333333","83.3333333333","680.5","680.5","black","no","legacy","legacy","legacy","0","incongruent","uniform","1","undefined","1","s","17","0","0","0","17","0","17","0","17","0","0","0","17","17","17","17","09/09/18 21:44:13","1500","The main experiment item","yes","F:\","no","mono","no","18","no","white","no","yes","768","legacy","17","17","F:/mc-subject-3.csv","legacy","Jazzy James","3.1.9","0","s","NA","h","NA","NA","s","632","NA","51394","NA","NA","632","2","legacy","1024","2","48000","-16","experiment","HHSHH","3","odd","94621","61413","NA","NA","77677","10012","NA","NA","95733","10017","NA","NA","95836","96472","95728","95836","Flanker","15","12249","18","yes","1024"
"84.2105263158","84.2105263158","672.105263158","672.105263158","black","no","legacy","legacy","legacy","0","congruent","uniform","1","undefined","1","h","18","0","0","0","18","0","18","0","18","0","0","0","18","18","18","18","09/09/18 21:44:13","1500","The main experiment item","yes","F:\","no","mono","no","18","no","white","no","yes","768","legacy","18","18","F:/mc-subject-3.csv","legacy","Jazzy James","3.1.9","0","h","NA","h","NA","NA","h","521","NA","51394","NA","NA","521","2","legacy","1024","2","48000","-16","experiment","HHHHH","3","odd","96494","61413","NA","NA","77677","10012","NA","NA","97600","10017","NA","NA","97704","98227","97596","97704","Flanker","16","12770","19","yes","1024"
"85","85","665.55","665.55","black","no","legacy","legacy","legacy","0","congruent","uniform","1","undefined","1","s","19","0","0","0","19","0","19","0","19","0","0","0","19","19","19","19","09/09/18 21:44:13","1500","The main experiment item","yes","F:\","no","mono","no","18","no","white","no","yes","768","legacy","19","19","F:/mc-subject-3.csv","legacy","Jazzy James","3.1.9","0","s","NA","h","NA","NA","s","541","NA","51394","NA","NA","541","2","legacy","1024","2","48000","-16","experiment","SSSSS","3","odd","98241","61413","NA","NA","77677","10012","NA","NA","99360","10017","NA","NA","99464","100007","99355","99464","Flanker","17","13311","20","yes","1024"
"85.7142857143","85.7142857143","663.571428571","663.571428571","black","no","legacy","legacy","legacy","0","incongruent","uniform","1","undefined","1","s","20","0","0","0","20","0","20","0","20","0","0","0","20","20","20","20","09/09/18 21:44:13","1500","The main experiment item","yes","F:\","no","mono","no","18","no","white","no","yes","768","legacy","20","20","F:/mc-subject-3.csv","legacy","Jazzy James","3.1.9","0","s","NA","h","NA","NA","s","624","NA","51394","NA","NA","624","2","legacy","1024","2","48000","-16","experiment","HHSHH","3","odd","100019","61413","NA","NA","77677","10012","NA","NA","101128","10017","NA","NA","101231","101857","101123","101231","Flanker","18","13935","21","yes","1024"
"86.3636363636","86.3636363636","660.227272727","660.227272727","black","no","legacy","legacy","legacy","0","congruent","uniform","1","undefined","1","h","21","0","0","0","21","0","21","0","21","0","0","0","21","21","21","21","09/09/18 21:44:13","1500","The main experiment item","yes","F:\","no","mono","no","18","no","white","no","yes","768","legacy","21","21","F:/mc-subject-3.csv","legacy","Jazzy James","3.1.9","0","h","NA","h","NA","NA","h","590","NA","51394","NA","NA","590","2","legacy","1024","2","48000","-16","experiment","HHHHH","3","odd","101871","61413","NA","NA","77677","10012","NA","NA","102979","10017","NA","NA","103082","103674","102975","103082","Flanker","19","14525","22","yes","1024"
"86.9565217391","86.9565217391","653.434782609","653.434782609","black","no","legacy","legacy","legacy","0","incongruent","uniform","1","undefined","1","h","22","0","0","0","22","0","22","0","22","0","0","0","22","22","22","22","09/09/18 21:44:13","1500","The main experiment item","yes","F:\","no","mono","no","18","no","white","no","yes","768","legacy","22","22","F:/mc-subject-3.csv","legacy","Jazzy James","3.1.9","0","h","NA","h","NA","NA","h","504","NA","51394","NA","NA","504","2","legacy","1024","2","48000","-16","experiment","SSHSS","3","odd","103689","61413","NA","NA","77677","10012","NA","NA","104797","10017","NA","NA","104900","105406","104792","104900","Flanker","20","15029","23","yes","1024"
"87.5","87.5","646.75","646.75","black","no","legacy","legacy","legacy","0","congruent","uniform","1","undefined","1","s","23","0","0","0","23","0","23","0","23","0","0","0","23","23","23","23","09/09/18 21:44:13","1500","The main experiment item","yes","F:\","no","mono","no","18","no","white","no","yes","768","legacy","23","23","F:/mc-subject-3.csv","legacy","Jazzy James","3.1.9","0","s","NA","h","NA","NA","s","493","NA","51394","NA","NA","493","2","legacy","1024","2","48000","-16","experiment","SSSSS","3","odd","105418","61413","NA","NA","77677","10012","NA","NA","106529","10017","NA","NA","106633","107128","106525","106633","Flanker","21","15522","24","yes","1024"
"88","88","644.12","644.12","black","no","legacy","legacy","legacy","0","congruent","uniform","1","undefined","1","h","24","0","0","0","24","0","24","0","24","0","0","0","24","24","24","24","09/09/18 21:44:13","1500","The main experiment item","yes","F:\","no","mono","no","18","no","white","no","yes","768","legacy","24","24","F:/mc-subject-3.csv","legacy","Jazzy James","3.1.9","0","h","NA","h","NA","NA","h","581","NA","51394","NA","NA","581","2","legacy","1024","2","48000","-16","experiment","HHHHH","3","odd","107142","61413","NA","NA","77677","10012","NA","NA","108247","10017","NA","NA","108350","108933","108243","108349","Flanker","22","16103","25","yes","1024"
"88.4615384615","88.4615384615","638.846153846","638.846153846","black","no","legacy","legacy","legacy","0","congruent","uniform","1","undefined","1","s","25","0","0","0","25","0","25","0","25","0","0","0","25","25","25","25","09/09/18 21:44:13","1500","The main experiment item","yes","F:\","no","mono","no","18","no","white","no","yes","768","legacy","25","25","F:/mc-subject-3.csv","legacy","Jazzy James","3.1.9","0","s","NA","h","NA","NA","s","507","NA","51394","NA","NA","507","2","legacy","1024","2","48000","-16","experiment","SSSSS","3","odd","108947","61413","NA","NA","77677","10012","NA","NA","110057","10017","NA","NA","110160","110669","110052","110160","Flanker","23","16610","26","yes","1024"
"85.1851851852","85.1851851852","638.111111111","638.111111111","black","no","legacy","legacy","legacy","0","congruent","uniform","0","undefined","0","h","26","0","0","0","26","0","26","0","26","0","0","0","26","26","26","26","09/09/18 21:44:13","1500","The main experiment item","yes","F:\","no","mono","no","18","no","white","no","yes","768","legacy","26","26","F:/mc-subject-3.csv","legacy","Jazzy James","3.1.9","0","s","NA","h","NA","NA","s","619","NA","51394","NA","NA","619","2","legacy","1024","2","48000","-16","experiment","HHHHH","3","odd","110682","61413","NA","NA","77677","10012","NA","NA","111792","10017","NA","NA","111895","112516","111786","111895","Flanker","23","17229","27","yes","1024"
"85.7142857143","85.7142857143","639.928571429","639.928571429","black","no","legacy","legacy","legacy","0","incongruent","uniform","1","undefined","1","h","27","0","0","0","27","0","27","0","27","0","0","0","27","27","27","27","09/09/18 21:44:13","1500","The main experiment item","yes","F:\","no","mono","no","18","no","white","no","yes","768","legacy","27","27","F:/mc-subject-3.csv","legacy","Jazzy James","3.1.9","0","h","NA","h","NA","NA","h","689","NA","51394","NA","NA","689","2","legacy","1024","2","48000","-16","experiment","SSHSS","3","odd","113032","61413","NA","NA","112529","10012","NA","NA","114140","10017","NA","NA","114244","114935","114136","114243","Flanker","24","17918","28","yes","1024"
"86.2068965517","86.2068965517","636.206896552","636.206896552","black","no","legacy","legacy","legacy","0","congruent","uniform","1","undefined","1","s","28","0","0","0","28","0","28","0","28","0","0","0","28","28","28","28","09/09/18 21:44:13","1500","The main experiment item","yes","F:\","no","mono","no","18","no","white","no","yes","768","legacy","28","28","F:/mc-subject-3.csv","legacy","Jazzy James","3.1.9","0","s","NA","h","NA","NA","s","532","NA","51394","NA","NA","532","2","legacy","1024","2","48000","-16","experiment","SSSSS","3","odd","114950","61413","NA","NA","112529","10012","NA","NA","116061","10017","NA","NA","116165","116700","116056","116164","Flanker","25","18450","29","yes","1024"
"86.6666666667","86.6666666667","634.5","634.5","black","no","legacy","legacy","legacy","0","congruent","uniform","1","undefined","1","s","29","0","0","0","29","0","29","0","29","0","0","0","29","29","29","29","09/09/18 21:44:13","1500","The main experiment item","yes","F:\","no","mono","no","18","no","white","no","yes","768","legacy","29","29","F:/mc-subject-3.csv","legacy","Jazzy James","3.1.9","0","s","NA","h","NA","NA","s","585","NA","51394","NA","NA","585","2","legacy","1024","2","48000","-16","experiment","SSSSS","3","odd","116714","61413","NA","NA","112529","10012","NA","NA","117817","10017","NA","NA","117920","118507","117813","117920","Flanker","26","19035","30","yes","1024"
"87.0967741935","87.0967741935","636.419354839","636.419354839","black","no","legacy","legacy","legacy","0","congruent","uniform","1","undefined","1","s","30","0","0","0","30","0","30","0","30","0","0","0","30","30","30","30","09/09/18 21:44:13","1500","The main experiment item","yes","F:\","no","mono","no","18","no","white","no","yes","768","legacy","30","30","F:/mc-subject-3.csv","legacy","Jazzy James","3.1.9","0","s","NA","h","NA","NA","s","694","NA","51394","NA","NA","694","2","legacy","1024","2","48000","-16","experiment","SSSSS","3","odd","118531","61413","NA","NA","112529","10012","NA","NA","119631","10017","NA","NA","119736","120432","119626","119735","Flanker","27","19729","31","yes","1024"
"87.5","87.5","633","633","black","no","legacy","legacy","legacy","0","congruent","uniform","1","undefined","1","s","31","0","0","0","31","0","31","0","31","0","0","0","31","31","31","31","09/09/18 21:44:13","1500","The main experiment item","yes","F:\","no","mono","no","18","no","white","no","yes","768","legacy","31","31","F:/mc-subject-3.csv","legacy","Jazzy James","3.1.9","0","s","NA","h","NA","NA","s","527","NA","51394","NA","NA","527","2","legacy","1024","2","48000","-16","experiment","SSSSS","3","odd","120447","61413","NA","NA","112529","10012","NA","NA","121559","10017","NA","NA","121663","122193","121555","121663","Flanker","28","20256","32","yes","1024"
"87.8787878788","87.8787878788","631.090909091","631.090909091","black","no","legacy","legacy","legacy","0","incongruent","uniform","1","undefined","1","s","32","0","0","0","32","0","32","0","32","0","0","0","32","32","32","32","09/09/18 21:44:13","1500","The main experiment item","yes","F:\","no","mono","no","18","no","white","no","yes","768","legacy","32","32","F:/mc-subject-3.csv","legacy","Jazzy James","3.1.9","0","s","NA","h","NA","NA","s","570","NA","51394","NA","NA","570","2","legacy","1024","2","48000","-16","experiment","HHSHH","3","odd","122210","61413","NA","NA","112529","10012","NA","NA","123315","10017","NA","NA","123419","123993","123311","123419","Flanker","29","20826","33","yes","1024"
"88.2352941176","88.2352941176","626.382352941","626.382352941","black","no","legacy","legacy","legacy","0","congruent","uniform","1","undefined","1","h","33","0","0","0","33","0","33","0","33","0","0","0","33","33","33","33","09/09/18 21:44:13","1500","The main experiment item","yes","F:\","no","mono","no","18","no","white","no","yes","768","legacy","33","33","F:/mc-subject-3.csv","legacy","Jazzy James","3.1.9","0","h","NA","h","NA","NA","h","471","NA","51394","NA","NA","471","2","legacy","1024","2","48000","-16","experiment","HHHHH","3","odd","124007","61413","NA","NA","112529","10012","NA","NA","125116","10017","NA","NA","125219","125693","125111","125219","Flanker","30","21297","34","yes","1024"
"88.5714285714","88.5714285714","623.371428571","623.371428571","black","no","legacy","legacy","legacy","0","incongruent","uniform","1","undefined","1","h","34","0","0","0","34","0","34","0","34","0","0","0","34","34","34","34","09/09/18 21:44:13","1500","The main experiment item","yes","F:\","no","mono","no","18","no","white","no","yes","768","legacy","34","34","F:/mc-subject-3.csv","legacy","Jazzy James","3.1.9","0","h","NA","h","NA","NA","h","521","NA","51394","NA","NA","521","2","legacy","1024","2","48000","-16","experiment","SSHSS","3","odd","125710","61413","NA","NA","112529","10012","NA","NA","126822","10017","NA","NA","126926","127450","126817","126925","Flanker","31","21818","35","yes","1024"
"88.8888888889","88.8888888889","620.944444444","620.944444444","black","no","legacy","legacy","legacy","0","congruent","uniform","1","undefined","1","h","35","0","0","0","35","0","35","0","35","0","0","0","35","35","35","35","09/09/18 21:44:13","1500","The main experiment item","yes","F:\","no","mono","no","18","no","white","no","yes","768","legacy","35","35","F:/mc-subject-3.csv","legacy","Jazzy James","3.1.9","0","h","NA","h","NA","NA","h","536","NA","51394","NA","NA","536","2","legacy","1024","2","48000","-16","experiment","HHHHH","3","odd","127464","61413","NA","NA","112529","10012","NA","NA","128581","10017","NA","NA","128684","129223","128575","128684","Flanker","32","22354","36","yes","1024"
"89.1891891892","89.1891891892","619.513513514","619.513513514","black","no","legacy","legacy","legacy","0","incongruent","uniform","1","undefined","1","s","36","0","0","0","36","0","36","0","36","0","0","0","36","36","36","36","09/09/18 21:44:13","1500","The main experiment item","yes","F:\","no","mono","no","18","no","white","no","yes","768","legacy","36","36","F:/mc-subject-3.csv","legacy","Jazzy James","3.1.9","0","s","NA","h","NA","NA","s","568","NA","51394","NA","NA","568","2","legacy","1024","2","48000","-16","experiment","HHSHH","3","odd","129235","61413","NA","NA","112529","10012","NA","NA","130335","10017","NA","NA","130437","131007","130331","130437","Flanker","33","22922","37","yes","1024"
"89.4736842105","89.4736842105","624.973684211","624.973684211","black","no","legacy","legacy","legacy","0","incongruent","uniform","1","undefined","1","h","37","0","0","0","37","0","37","0","37","0","0","0","37","37","37","37","09/09/18 21:44:13","1500","The main experiment item","yes","F:\","no","mono","no","18","no","white","no","yes","768","legacy","37","37","F:/mc-subject-3.csv","legacy","Jazzy James","3.1.9","0","h","NA","h","NA","NA","h","827","NA","51394","NA","NA","827","2","legacy","1024","2","48000","-16","experiment","SSHSS","3","odd","131019","61413","NA","NA","112529","10012","NA","NA","132125","10017","NA","NA","132229","133058","132121","132229","Flanker","34","23749","38","yes","1024"
"89.7435897436","89.7435897436","620.871794872","620.871794872","black","no","legacy","legacy","legacy","0","incongruent","uniform","1","undefined","1","h","38","0","0","0","38","0","38","0","38","0","0","0","38","38","38","38","09/09/18 21:44:13","1500","The main experiment item","yes","F:\","no","mono","no","18","no","white","no","yes","768","legacy","38","38","F:/mc-subject-3.csv","legacy","Jazzy James","3.1.9","0","h","NA","h","NA","NA","h","465","NA","51394","NA","NA","465","2","legacy","1024","2","48000","-16","experiment","SSHSS","3","odd","133072","61413","NA","NA","112529","10012","NA","NA","134178","10017","NA","NA","134282","134750","134174","134282","Flanker","35","24214","39","yes","1024"
"90","90","615.925","615.925","black","no","legacy","legacy","legacy","0","incongruent","uniform","1","undefined","1","h","39","0","0","0","39","0","39","0","39","0","0","0","39","39","39","39","09/09/18 21:44:13","1500","The main experiment item","yes","F:\","no","mono","no","18","no","white","no","yes","768","legacy","39","39","F:/mc-subject-3.csv","legacy","Jazzy James","3.1.9","0","h","NA","h","NA","NA","h","423","NA","51394","NA","NA","423","2","legacy","1024","2","48000","-16","experiment","SSHSS","3","odd","134764","61413","NA","NA","112529","10012","NA","NA","135870","10017","NA","NA","135974","136400","135866","135973","Flanker","36","24637","40","yes","1024"
"90.243902439","90.243902439","614.317073171","614.317073171","black","no","legacy","legacy","legacy","0","incongruent","uniform","1","undefined","1","s","40","0","0","0","40","0","40","0","40","0","0","0","40","40","40","40","09/09/18 21:44:13","1500","The main experiment item","yes","F:\","no","mono","no","18","no","white","no","yes","768","legacy","40","40","F:/mc-subject-3.csv","legacy","Jazzy James","3.1.9","0","s","NA","h","NA","NA","s","550","NA","51394","NA","NA","550","2","legacy","1024","2","48000","-16","experiment","HHSHH","3","odd","136413","61413","NA","NA","112529","10012","NA","NA","137529","10017","NA","NA","137632","138185","137524","137632","Flanker","37","25187","41","yes","1024"
"90.4761904762","90.4761904762","614.142857143","614.142857143","black","no","legacy","legacy","legacy","0","incongruent","uniform","1","undefined","1","h","41","0","0","0","41","0","41","0","41","0","0","0","41","41","41","41","09/09/18 21:44:13","1500","The main experiment item","yes","F:\","no","mono","no","18","no","white","no","yes","768","legacy","41","41","F:/mc-subject-3.csv","legacy","Jazzy James","3.1.9","0","h","NA","h","NA","NA","h","607","NA","51394","NA","NA","607","2","legacy","1024","2","48000","-16","experiment","SSHSS","3","odd","138199","61413","NA","NA","112529","10012","NA","NA","139304","10017","NA","NA","139408","140018","139299","139407","Flanker","38","25794","42","yes","1024"
"90.6976744186","90.6976744186","617.88372093","617.88372093","black","no","legacy","legacy","legacy","0","congruent","uniform","1","undefined","1","s","42","0","0","0","42","0","42","0","42","0","0","0","42","42","42","42","09/09/18 21:44:13","1500","The main experiment item","yes","F:\","no","mono","no","18","no","white","no","yes","768","legacy","42","42","F:/mc-subject-3.csv","legacy","Jazzy James","3.1.9","0","s","NA","h","NA","NA","s","775","NA","51394","NA","NA","775","2","legacy","1024","2","48000","-16","experiment","SSSSS","3","odd","140044","61413","NA","NA","112529","10012","NA","NA","141150","10017","NA","NA","141256","142034","141146","141256","Flanker","39","26569","43","yes","1024"
"90.9090909091","90.9090909091","617.659090909","617.659090909","black","no","legacy","legacy","legacy","0","incongruent","uniform","1","undefined","1","h","43","0","0","0","43","0","43","0","43","0","0","0","43","43","43","43","09/09/18 21:44:13","1500","The main experiment item","yes","F:\","no","mono","no","18","no","white","no","yes","768","legacy","43","43","F:/mc-subject-3.csv","legacy","Jazzy James","3.1.9","0","h","NA","h","NA","NA","h","608","NA","51394","NA","NA","608","2","legacy","1024","2","48000","-16","experiment","SSHSS","3","odd","142049","61413","NA","NA","112529","10012","NA","NA","143166","10017","NA","NA","143269","143880","143161","143269","Flanker","40","27177","44","yes","1024"
"91.1111111111","91.1111111111","615.177777778","615.177777778","black","no","legacy","legacy","legacy","0","incongruent","uniform","1","undefined","1","h","44","0","0","0","44","0","44","0","44","0","0","0","44","44","44","44","09/09/18 21:44:13","1500","The main experiment item","yes","F:\","no","mono","no","18","no","white","no","yes","768","legacy","44","44","F:/mc-subject-3.csv","legacy","Jazzy James","3.1.9","0","h","NA","h","NA","NA","h","506","NA","51394","NA","NA","506","2","legacy","1024","2","48000","-16","experiment","SSHSS","3","odd","143892","61413","NA","NA","112529","10012","NA","NA","145005","10017","NA","NA","145110","145619","145001","145110","Flanker","41","27683","45","yes","1024"
"91.3043478261","91.3043478261","613.173913043","613.173913043","black","no","legacy","legacy","legacy","0","incongruent","uniform","1","undefined","1","h","45","0","0","0","45","0","45","0","45","0","0","0","45","45","45","45","09/09/18 21:44:13","1500","The main experiment item","yes","F:\","no","mono","no","18","no","white","no","yes","768","legacy","45","45","F:/mc-subject-3.csv","legacy","Jazzy James","3.1.9","0","h","NA","h","NA","NA","h","523","NA","51394","NA","NA","523","2","legacy","1024","2","48000","-16","experiment","SSHSS","3","odd","145636","61413","NA","NA","112529","10012","NA","NA","146740","10017","NA","NA","146845","147371","146735","146845","Flanker","42","28206","46","yes","1024"
"91.4893617021","91.4893617021","611.744680851","611.744680851","black","no","legacy","legacy","legacy","0","congruent","uniform","1","undefined","1","h","46","0","0","0","46","0","46","0","46","0","0","0","46","46","46","46","09/09/18 21:44:13","1500","The main experiment item","yes","F:\","no","mono","no","18","no","white","no","yes","768","legacy","46","46","F:/mc-subject-3.csv","legacy","Jazzy James","3.1.9","0","h","NA","h","NA","NA","h","546","NA","51394","NA","NA","546","2","legacy","1024","2","48000","-16","experiment","HHHHH","3","odd","147384","61413","NA","NA","112529","10012","NA","NA","148503","10017","NA","NA","148606","149156","148495","148606","Flanker","43","28752","47","yes","1024"
"91.6666666667","91.6666666667","610.291666667","610.291666667","black","no","legacy","legacy","legacy","0","congruent","uniform","1","undefined","1","h","47","0","0","0","47","0","47","0","47","0","0","0","47","47","47","47","09/09/18 21:44:13","1500","The main experiment item","yes","F:\","no","mono","no","18","no","white","no","yes","768","legacy","47","47","F:/mc-subject-3.csv","legacy","Jazzy James","3.1.9","0","h","NA","h","NA","NA","h","542","NA","51394","NA","NA","542","2","legacy","1024","2","48000","-16","experiment","HHHHH","3","odd","149169","61413","NA","NA","112529","10012","NA","NA","150278","10017","NA","NA","150381","150926","150273","150381","Flanker","44","29294","48","yes","1024"
"91.8367346939","91.8367346939","611.93877551","611.93877551","black","no","legacy","legacy","legacy","0","congruent","uniform","1","undefined","1","s","48","0","0","0","48","0","48","0","48","0","0","0","48","48","48","48","09/09/18 21:44:13","1500","The main experiment item","yes","F:\","no","mono","no","18","no","white","no","yes","768","legacy","48","48","F:/mc-subject-3.csv","legacy","Jazzy James","3.1.9","0","s","NA","h","NA","NA","s","691","NA","51394","NA","NA","691","2","legacy","1024","2","48000","-16","experiment","SSSSS","3","odd","150942","61413","NA","NA","112529","10012","NA","NA","152041","10017","NA","NA","152144","152839","152036","152143","Flanker","45","29985","49","yes","1024"
"92","92","610.76","610.76","black","no","legacy","legacy","legacy","0","congruent","uniform","1","undefined","1","s","49","0","0","0","49","0","49","0","49","0","0","0","49","49","49","49","09/09/18 21:44:13","1500","The main experiment item","yes","F:\","no","mono","no","18","no","white","no","yes","768","legacy","49","49","F:/mc-subject-3.csv","legacy","Jazzy James","3.1.9","0","s","NA","h","NA","NA","s","553","NA","51394","NA","NA","553","2","legacy","1024","2","48000","-16","experiment","SSSSS","3","odd","152855","61413","NA","NA","112529","10012","NA","NA","153960","10017","NA","NA","154068","154624","153956","154068","Flanker","46","30538","50","yes","1024"
"92.1568627451","92.1568627451","611","611","black","no","legacy","legacy","legacy","0","congruent","uniform","1","undefined","1","h","50","0","0","0","50","0","50","0","50","0","0","0","50","50","50","50","09/09/18 21:44:13","1500","The main experiment item","yes","F:\","no","mono","no","18","no","white","no","yes","768","legacy","50","50","F:/mc-subject-3.csv","legacy","Jazzy James","3.1.9","0","h","NA","h","NA","NA","h","623","NA","51394","NA","NA","623","2","legacy","1024","2","48000","-16","experiment","HHHHH","3","odd","154637","61413","NA","NA","112529","10012","NA","NA","155742","10017","NA","NA","155846","156472","155738","155846","Flanker","47","31161","51","yes","1024"
"92.3076923077","92.3076923077","609.057692308","609.057692308","black","no","legacy","legacy","legacy","0","incongruent","uniform","1","undefined","1","h","51","0","0","0","51","0","51","0","51","0","0","0","51","51","51","51","09/09/18 21:44:13","1500","The main experiment item","yes","F:\","no","mono","no","18","no","white","no","yes","768","legacy","51","51","F:/mc-subject-3.csv","legacy","Jazzy James","3.1.9","0","h","NA","h","NA","NA","h","510","NA","51394","NA","NA","510","2","legacy","1024","2","48000","-16","experiment","SSHSS","3","odd","156487","61413","NA","NA","112529","10012","NA","NA","157596","10017","NA","NA","157700","158212","157591","157699","Flanker","48","31671","52","yes","1024"
"92.4528301887","92.4528301887","610.452830189","610.452830189","black","no","legacy","legacy","legacy","0","incongruent","uniform","1","undefined","1","s","52","0","0","0","52","0","52","0","52","0","0","0","52","52","52","52","09/09/18 21:44:13","1500","The main experiment item","yes","F:\","no","mono","no","18","no","white","no","yes","768","legacy","52","52","F:/mc-subject-3.csv","legacy","Jazzy James","3.1.9","0","s","NA","h","NA","NA","s","683","NA","51394","NA","NA","683","2","legacy","1024","2","48000","-16","experiment","HHSHH","3","odd","158225","61413","NA","NA","112529","10012","NA","NA","159329","10017","NA","NA","159432","160118","159324","159432","Flanker","49","32354","53","yes","1024"
"92.5925925926","92.5925925926","611.777777778","611.777777778","black","no","legacy","legacy","legacy","0","congruent","uniform","1","undefined","1","s","53","0","0","0","53","0","53","0","53","0","0","0","53","53","53","53","09/09/18 21:44:13","1500","The main experiment item","yes","F:\","no","mono","no","18","no","white","no","yes","768","legacy","53","53","F:/mc-subject-3.csv","legacy","Jazzy James","3.1.9","0","s","NA","h","NA","NA","s","682","NA","51394","NA","NA","682","2","legacy","1024","2","48000","-16","experiment","SSSSS","3","odd","160130","61413","NA","NA","112529","10012","NA","NA","161256","10017","NA","NA","161359","162044","161251","161359","Flanker","50","33036","54","yes","1024"
"92.7272727273","92.7272727273","610.563636364","610.563636364","black","no","legacy","legacy","legacy","0","incongruent","uniform","1","undefined","1","h","54","0","0","0","54","0","54","0","54","0","0","0","54","54","54","54","09/09/18 21:44:13","1500","The main experiment item","yes","F:\","no","mono","no","18","no","white","no","yes","768","legacy","54","54","F:/mc-subject-3.csv","legacy","Jazzy James","3.1.9","0","h","NA","h","NA","NA","h","545","NA","51394","NA","NA","545","2","legacy","1024","2","48000","-16","experiment","SSHSS","3","odd","162061","61413","NA","NA","112529","10012","NA","NA","163160","10017","NA","NA","163263","163810","163156","163263","Flanker","51","33581","55","yes","1024"
"92.8571428571","92.8571428571","608.892857143","608.892857143","black","no","legacy","legacy","legacy","0","incongruent","uniform","1","undefined","1","h","55","0","0","0","55","0","55","0","55","0","0","0","55","55","55","55","09/09/18 21:44:13","1500","The main experiment item","yes","F:\","no","mono","no","18","no","white","no","yes","768","legacy","55","55","F:/mc-subject-3.csv","legacy","Jazzy James","3.1.9","0","h","NA","h","NA","NA","h","517","NA","51394","NA","NA","517","2","legacy","1024","2","48000","-16","experiment","SSHSS","3","odd","163825","61413","NA","NA","112529","10012","NA","NA","164942","10017","NA","NA","165045","165565","164937","165044","Flanker","52","34098","56","yes","1024"
"92.9824561404","92.9824561404","606","606","black","no","legacy","legacy","legacy","0","congruent","uniform","1","undefined","1","s","56","0","0","0","56","0","56","0","56","0","0","0","56","56","56","56","09/09/18 21:44:13","1500","The main experiment item","yes","F:\","no","mono","no","18","no","white","no","yes","768","legacy","56","56","F:/mc-subject-3.csv","legacy","Jazzy James","3.1.9","0","s","NA","h","NA","NA","s","444","NA","51394","NA","NA","444","2","legacy","1024","2","48000","-16","experiment","SSSSS","3","odd","165579","61413","NA","NA","112529","10012","NA","NA","166679","10017","NA","NA","166783","167230","166675","166782","Flanker","53","34542","57","yes","1024"
"93.1034482759","93.1034482759","604.310344828","604.310344828","black","no","legacy","legacy","legacy","0","incongruent","uniform","1","undefined","1","s","57","0","0","0","57","0","57","0","57","0","0","0","57","57","57","57","09/09/18 21:44:13","1500","The main experiment item","yes","F:\","no","mono","no","18","no","white","no","yes","768","legacy","57","57","F:/mc-subject-3.csv","legacy","Jazzy James","3.1.9","0","s","NA","h","NA","NA","s","508","NA","51394","NA","NA","508","2","legacy","1024","2","48000","-16","experiment","HHSHH","3","odd","167243","61413","NA","NA","112529","10012","NA","NA","168359","10017","NA","NA","168462","168973","168354","168462","Flanker","54","35050","58","yes","1024"
"93.2203389831","93.2203389831","604.118644068","604.118644068","black","no","legacy","legacy","legacy","0","congruent","uniform","1","undefined","1","h","58","0","0","0","58","0","58","0","58","0","0","0","58","58","58","58","09/09/18 21:44:13","1500","The main experiment item","yes","F:\","no","mono","no","18","no","white","no","yes","768","legacy","58","58","F:/mc-subject-3.csv","legacy","Jazzy James","3.1.9","0","h","NA","h","NA","NA","h","593","NA","51394","NA","NA","593","2","legacy","1024","2","48000","-16","experiment","HHHHH","3","odd","168987","61413","NA","NA","112529","10012","NA","NA","170085","10017","NA","NA","170189","170785","170081","170189","Flanker","55","35643","59","yes","1024"
"93.3333333333","93.3333333333","602.533333333","602.533333333","black","no","legacy","legacy","legacy","0","congruent","uniform","1","undefined","1","h","59","0","0","0","59","0","59","0","59","0","0","0","59","59","59","59","09/09/18 21:44:13","1500","The main experiment item","yes","F:\","no","mono","no","18","no","white","no","yes","768","legacy","59","59","F:/mc-subject-3.csv","legacy","Jazzy James","3.1.9","0","h","NA","h","NA","NA","h","509","NA","51394","NA","NA","509","2","legacy","1024","2","48000","-16","experiment","HHHHH","3","odd","170798","61413","NA","NA","112529","10012","NA","NA","171907","10017","NA","NA","172010","172522","171903","172009","Flanker","56","36152","60","yes","1024"
"93.4426229508","93.4426229508","600.098360656","600.098360656","black","no","legacy","legacy","legacy","0","congruent","uniform","1","undefined","1","h","60","0","0","0","60","0","60","0","60","0","0","0","60","60","60","60","09/09/18 21:44:13","1500","The main experiment item","yes","F:\","no","mono","no","18","no","white","no","yes","768","legacy","60","60","F:/mc-subject-3.csv","legacy","Jazzy James","3.1.9","0","h","NA","h","NA","NA","h","454","NA","51394","NA","NA","454","2","legacy","1024","2","48000","-16","experiment","HHHHH","3","odd","172534","61413","NA","NA","112529","10012","NA","NA","173646","10017","NA","NA","173749","174206","173641","173749","Flanker","57","36606","61","yes","1024"
"93.5483870968","93.5483870968","599.467741935","599.467741935","black","no","legacy","legacy","legacy","0","incongruent","uniform","1","undefined","1","s","61","0","0","0","61","0","61","0","61","0","0","0","61","61","61","61","09/09/18 21:44:13","1500","The main experiment item","yes","F:\","no","mono","no","18","no","white","no","yes","768","legacy","61","61","F:/mc-subject-3.csv","legacy","Jazzy James","3.1.9","0","s","NA","h","NA","NA","s","561","NA","51394","NA","NA","561","2","legacy","1024","2","48000","-16","experiment","HHSHH","3","odd","174218","61413","NA","NA","112529","10012","NA","NA","175338","10017","NA","NA","175441","176006","175333","175441","Flanker","58","37167","62","yes","1024"
"93.6507936508","93.6507936508","600.26984127","600.26984127","black","no","legacy","legacy","legacy","0","incongruent","uniform","1","undefined","1","s","62","0","0","0","62","0","62","0","62","0","0","0","62","62","62","62","09/09/18 21:44:13","1500","The main experiment item","yes","F:\","no","mono","no","18","no","white","no","yes","768","legacy","62","62","F:/mc-subject-3.csv","legacy","Jazzy James","3.1.9","0","s","NA","h","NA","NA","s","650","NA","51394","NA","NA","650","2","legacy","1024","2","48000","-16","experiment","HHSHH","3","odd","176023","61413","NA","NA","112529","10012","NA","NA","177133","10017","NA","NA","177237","177890","177129","177237","Flanker","59","37817","63","yes","1024"
"93.75","93.75","600.078125","600.078125","black","no","legacy","legacy","legacy","0","incongruent","uniform","1","undefined","1","h","63","0","0","0","63","0","63","0","63","0","0","0","63","63","63","63","09/09/18 21:44:13","1500","The main experiment item","yes","F:\","no","mono","no","18","no","white","no","yes","768","legacy","63","63","F:/mc-subject-3.csv","legacy","Jazzy James","3.1.9","0","h","NA","h","NA","NA","h","588","NA","51394","NA","NA","588","2","legacy","1024","2","48000","-16","experiment","SSHSS","3","odd","177904","61413","NA","NA","112529","10012","NA","NA","179012","10017","NA","NA","179116","179707","179008","179116","Flanker","60","38405","64","yes","1024"
"93.8461538462","93.8461538462","598.984615385","598.984615385","black","no","legacy","legacy","legacy","0","congruent","uniform","1","undefined","1","h","64","0","0","0","64","0","64","0","64","0","0","0","64","64","64","64","09/09/18 21:44:13","1500","The main experiment item","yes","F:\","no","mono","no","18","no","white","no","yes","768","legacy","64","64","F:/mc-subject-3.csv","legacy","Jazzy James","3.1.9","0","h","NA","h","NA","NA","h","529","NA","51394","NA","NA","529","2","legacy","1024","2","48000","-16","experiment","HHHHH","3","odd","179721","61413","NA","NA","112529","10012","NA","NA","180828","10017","NA","NA","180932","181464","180824","180932","Flanker","61","38934","65","yes","1024"
"93.9393939394","93.9393939394","599.196969697","599.196969697","black","no","legacy","legacy","legacy","0","congruent","uniform","1","undefined","1","h","65","0","0","0","65","0","65","0","65","0","0","0","65","65","65","65","09/09/18 21:44:13","1500","The main experiment item","yes","F:\","no","mono","no","18","no","white","no","yes","768","legacy","65","65","F:/mc-subject-3.csv","legacy","Jazzy James","3.1.9","0","h","NA","h","NA","NA","h","613","NA","51394","NA","NA","613","2","legacy","1024","2","48000","-16","experiment","HHHHH","3","odd","181476","61413","NA","NA","112529","10012","NA","NA","182581","10017","NA","NA","182684","183301","182576","182684","Flanker","62","39547","66","yes","1024"
"94.0298507463","94.0298507463","597.223880597","597.223880597","black","no","legacy","legacy","legacy","0","incongruent","uniform","1","undefined","1","h","66","0","0","0","66","0","66","0","66","0","0","0","66","66","66","66","09/09/18 21:44:13","1500","The main experiment item","yes","F:\","no","mono","no","18","no","white","no","yes","768","legacy","66","66","F:/mc-subject-3.csv","legacy","Jazzy James","3.1.9","0","h","NA","h","NA","NA","h","467","NA","51394","NA","NA","467","2","legacy","1024","2","48000","-16","experiment","SSHSS","3","odd","183316","61413","NA","NA","112529","10012","NA","NA","184421","10017","NA","NA","184524","185001","184417","184523","Flanker","63","40014","67","yes","1024"
"94.1176470588","94.1176470588","597.823529412","597.823529412","black","no","legacy","legacy","legacy","0","congruent","uniform","1","undefined","1","h","67","0","0","0","67","0","67","0","67","0","0","0","67","67","67","67","09/09/18 21:44:13","1500","The main experiment item","yes","F:\","no","mono","no","18","no","white","no","yes","768","legacy","67","67","F:/mc-subject-3.csv","legacy","Jazzy James","3.1.9","0","h","NA","h","NA","NA","h","638","NA","51394","NA","NA","638","2","legacy","1024","2","48000","-16","experiment","HHHHH","3","odd","185015","61413","NA","NA","112529","10012","NA","NA","186119","10017","NA","NA","186223","186864","186115","186223","Flanker","64","40652","68","yes","1024"
"94.2028985507","94.2028985507","598.623188406","598.623188406","black","no","legacy","legacy","legacy","0","incongruent","uniform","1","undefined","1","s","68","0","0","0","68","0","68","0","68","0","0","0","68","68","68","68","09/09/18 21:44:13","1500","The main experiment item","yes","F:\","no","mono","no","18","no","white","no","yes","768","legacy","68","68","F:/mc-subject-3.csv","legacy","Jazzy James","3.1.9","0","s","NA","h","NA","NA","s","653","NA","51394","NA","NA","653","2","legacy","1024","2","48000","-16","experiment","HHSHH","3","odd","186877","61413","NA","NA","112529","10012","NA","NA","187985","10017","NA","NA","188089","188746","187981","188089","Flanker","65","41305","69","yes","1024"
"94.2857142857","94.2857142857","599.528571429","599.528571429","black","no","legacy","legacy","legacy","0","congruent","uniform","1","undefined","1","h","69","0","0","0","69","0","69","0","69","0","0","0","69","69","69","69","09/09/18 21:44:13","1500","The main experiment item","yes","F:\","no","mono","no","18","no","white","no","yes","768","legacy","69","69","F:/mc-subject-3.csv","legacy","Jazzy James","3.1.9","0","h","NA","h","NA","NA","h","662","NA","51394","NA","NA","662","2","legacy","1024","2","48000","-16","experiment","HHHHH","3","odd","188763","61413","NA","NA","112529","10012","NA","NA","189875","10017","NA","NA","189978","190644","189868","189978","Flanker","66","41967","70","yes","1024"
"94.3661971831","94.3661971831","599.042253521","599.042253521","black","no","legacy","legacy","legacy","0","incongruent","uniform","1","undefined","1","s","70","0","0","0","70","0","70","0","70","0","0","0","70","70","70","70","09/09/18 21:44:13","1500","The main experiment item","yes","F:\","no","mono","no","18","no","white","no","yes","768","legacy","70","70","F:/mc-subject-3.csv","legacy","Jazzy James","3.1.9","0","s","NA","h","NA","NA","s","565","NA","51394","NA","NA","565","2","legacy","1024","2","48000","-16","experiment","HHSHH","3","odd","190658","61413","NA","NA","112529","10012","NA","NA","191780","10017","NA","NA","191884","192452","191776","191884","Flanker","67","42532","71","yes","1024"
"94.4444444444","94.4444444444","599.138888889","599.138888889","black","no","legacy","legacy","legacy","0","congruent","uniform","1","undefined","1","s","71","0","0","0","71","0","71","0","71","0","0","0","71","71","71","71","09/09/18 21:44:13","1500","The main experiment item","yes","F:\","no","mono","no","18","no","white","no","yes","768","legacy","71","71","F:/mc-subject-3.csv","legacy","Jazzy James","3.1.9","0","s","NA","h","NA","NA","s","606","NA","51394","NA","NA","606","2","legacy","1024","2","48000","-16","experiment","SSSSS","3","odd","192464","61413","NA","NA","112529","10012","NA","NA","193571","10017","NA","NA","193674","194283","193567","193674","Flanker","68","43138","72","yes","1024"
"94.5205479452","94.5205479452","600.602739726","600.602739726","black","no","legacy","legacy","legacy","0","congruent","uniform","1","undefined","1","h","72","0","0","0","72","0","72","0","72","0","0","0","72","72","72","72","09/09/18 21:44:13","1500","The main experiment item","yes","F:\","no","mono","no","18","no","white","no","yes","768","legacy","72","72","F:/mc-subject-3.csv","legacy","Jazzy James","3.1.9","0","h","NA","h","NA","NA","h","706","NA","51394","NA","NA","706","2","legacy","1024","2","48000","-16","experiment","HHHHH","3","odd","194295","61413","NA","NA","112529","10012","NA","NA","195398","10017","NA","NA","195501","196210","195392","195501","Flanker","69","43844","73","yes","1024"
"94.5945945946","94.5945945946","599.405405405","599.405405405","black","no","legacy","legacy","legacy","0","congruent","uniform","1","undefined","1","h","73","0","0","0","73","0","73","0","73","0","0","0","73","73","73","73","09/09/18 21:44:13","1500","The main experiment item","yes","F:\","no","mono","no","18","no","white","no","yes","768","legacy","73","73","F:/mc-subject-3.csv","legacy","Jazzy James","3.1.9","0","h","NA","h","NA","NA","h","512","NA","51394","NA","NA","512","2","legacy","1024","2","48000","-16","experiment","HHHHH","3","odd","196223","61413","NA","NA","112529","10012","NA","NA","197333","10017","NA","NA","197436","197952","197329","197435","Flanker","70","44356","74","yes","1024"
"94.6666666667","94.6666666667","600.2","600.2","black","no","legacy","legacy","legacy","0","incongruent","uniform","1","undefined","1","s","74","0","0","0","74","0","74","0","74","0","0","0","74","74","74","74","09/09/18 21:44:13","1500","The main experiment item","yes","F:\","no","mono","no","18","no","white","no","yes","768","legacy","74","74","F:/mc-subject-3.csv","legacy","Jazzy James","3.1.9","0","s","NA","h","NA","NA","s","659","NA","51394","NA","NA","659","2","legacy","1024","2","48000","-16","experiment","HHSHH","3","odd","197969","61413","NA","NA","112529","10012","NA","NA","199075","10017","NA","NA","199178","199840","199071","199178","Flanker","71","45015","75","yes","1024"
"94.7368421053","94.7368421053","601.75","601.75","black","no","legacy","legacy","legacy","0","incongruent","uniform","1","undefined","1","s","75","0","0","0","75","0","75","0","75","0","0","0","75","75","75","75","09/09/18 21:44:13","1500","The main experiment item","yes","F:\","no","mono","no","18","no","white","no","yes","768","legacy","75","75","F:/mc-subject-3.csv","legacy","Jazzy James","3.1.9","0","s","NA","h","NA","NA","s","718","NA","51394","NA","NA","718","2","legacy","1024","2","48000","-16","experiment","HHSHH","3","odd","199854","61413","NA","NA","112529","10012","NA","NA","200961","10017","NA","NA","201064","201786","200956","201064","Flanker","72","45733","76","yes","1024"
"94.8051948052","94.8051948052","605.623376623","605.623376623","black","no","legacy","legacy","legacy","0","congruent","uniform","1","undefined","1","s","76","0","0","0","76","0","76","0","76","0","0","0","76","76","76","76","09/09/18 21:44:13","1500","The main experiment item","yes","F:\","no","mono","no","18","no","white","no","yes","768","legacy","76","76","F:/mc-subject-3.csv","legacy","Jazzy James","3.1.9","0","s","NA","h","NA","NA","s","900","NA","51394","NA","NA","900","2","legacy","1024","2","48000","-16","experiment","SSSSS","3","odd","201799","61413","NA","NA","112529","10012","NA","NA","202905","10017","NA","NA","203008","203913","202900","203008","Flanker","73","46633","77","yes","1024"
"94.8717948718","94.8717948718","605.141025641","605.141025641","black","no","legacy","legacy","legacy","0","incongruent","uniform","1","undefined","1","s","77","0","0","0","77","0","77","0","77","0","0","0","77","77","77","77","09/09/18 21:44:13","1500","The main experiment item","yes","F:\","no","mono","no","18","no","white","no","yes","768","legacy","77","77","F:/mc-subject-3.csv","legacy","Jazzy James","3.1.9","0","s","NA","h","NA","NA","s","568","NA","51394","NA","NA","568","2","legacy","1024","2","48000","-16","experiment","HHSHH","3","odd","203929","61413","NA","NA","112529","10012","NA","NA","205031","10017","NA","NA","205135","205707","205027","205134","Flanker","74","47201","78","yes","1024"
"94.9367088608","94.9367088608","603.746835443","603.746835443","black","no","legacy","legacy","legacy","0","congruent","uniform","1","undefined","1","s","78","0","0","0","78","0","78","0","78","0","0","0","78","78","78","78","09/09/18 21:44:13","1500","The main experiment item","yes","F:\","no","mono","no","18","no","white","no","yes","768","legacy","78","78","F:/mc-subject-3.csv","legacy","Jazzy James","3.1.9","0","s","NA","h","NA","NA","s","495","NA","51394","NA","NA","495","2","legacy","1024","2","48000","-16","experiment","SSSSS","3","odd","205720","61413","NA","NA","112529","10012","NA","NA","206829","10017","NA","NA","206937","207436","206824","206934","Flanker","75","47696","79","yes","1024"
"95","95","605.525","605.525","black","no","legacy","legacy","legacy","0","incongruent","uniform","1","undefined","1","s","79","0","0","0","79","0","79","0","79","0","0","0","79","79","79","79","09/09/18 21:44:13","1500","The main experiment item","yes","F:\","no","mono","no","18","no","white","no","yes","768","legacy","79","79","F:/mc-subject-3.csv","legacy","Jazzy James","3.1.9","0","s","NA","h","NA","NA","s","746","NA","51394","NA","NA","746","2","legacy","1024","2","48000","-16","experiment","HHSHH","3","odd","207450","61413","NA","NA","112529","10012","NA","NA","208551","10017","NA","NA","208654","209404","208547","208653","Flanker","76","48442","80","yes","1024"
"95.0617283951","95.0617283951","605.716049383","605.716049383","black","no","legacy","legacy","legacy","0","congruent","uniform","1","undefined","1","s","80","0","0","0","80","0","80","0","80","0","0","0","80","80","80","80","09/09/18 21:44:13","600","The main experiment item","yes","F:\","no","mono","no","18","no","white","no","yes","768","legacy","0","79","F:/mc-subject-3.csv","legacy","Jazzy James","3.1.9","0","s","NA","h","h","NA","s","621","NA","51394","14496","NA","621","2","legacy","1024","2","48000","-16","experiment","SSSSS","3","odd","209420","61413","224944","NA","112529","10012","NA","NA","225051","10017","210445","NA","225154","225779","225047","225154","Flanker","77","49063","81","yes","1024"
"93.9024390244","93.9024390244","606.243902439","606.243902439","black","no","legacy","legacy","legacy","0","incongruent","uniform","0","undefined","0","s","81","0","0","0","81","0","81","0","81","0","0","0","81","81","81","81","09/09/18 21:44:13","600","The main experiment item","yes","F:\","no","mono","no","18","no","white","no","yes","768","legacy","1","79","F:/mc-subject-3.csv","legacy","Jazzy James","3.1.9","0","h","NA","h","h","NA","h","649","NA","51394","14496","NA","649","2","legacy","1024","2","48000","-16","experiment","HHSHH","3","odd","226293","61413","224944","NA","112529","10012","225790","NA","227405","10017","210445","NA","227509","228161","227400","227509","Flanker","77","49712","82","yes","1024"
"93.9759036145","93.9759036145","604.734939759","604.734939759","black","no","legacy","legacy","legacy","0","incongruent","uniform","1","undefined","1","h","82","0","0","0","82","0","82","0","82","0","0","0","82","82","82","82","09/09/18 21:44:13","600","The main experiment item","yes","F:\","no","mono","no","18","no","white","no","yes","768","legacy","2","79","F:/mc-subject-3.csv","legacy","Jazzy James","3.1.9","0","h","NA","h","h","NA","h","481","NA","51394","14496","NA","481","2","legacy","1024","2","48000","-16","experiment","SSHSS","3","odd","229180","61413","224944","NA","228172","10012","228676","NA","230297","10017","210445","NA","230400","230884","230293","230400","Flanker","78","50193","83","yes","1024"
"94.0476190476","94.0476190476","601.904761905","601.904761905","black","no","legacy","legacy","legacy","0","incongruent","uniform","1","undefined","1","s","83","0","0","0","83","0","83","0","83","0","0","0","83","83","83","83","09/09/18 21:44:13","600","The main experiment item","yes","F:\","no","mono","no","18","no","white","no","yes","768","legacy","3","79","F:/mc-subject-3.csv","legacy","Jazzy James","3.1.9","0","s","NA","h","h","NA","s","367","NA","51394","14496","NA","367","2","legacy","1024","2","48000","-16","experiment","HHSHH","3","odd","230898","61413","224944","NA","228172","10012","228676","NA","232014","10017","210445","NA","232117","232487","232009","232117","Flanker","79","50560","84","yes","1024"
"94.1176470588","94.1176470588","600.517647059","600.517647059","black","no","legacy","legacy","legacy","0","congruent","uniform","1","undefined","1","h","84","0","0","0","84","0","84","0","84","0","0","0","84","84","84","84","09/09/18 21:44:13","600","The main experiment item","yes","F:\","no","mono","no","18","no","white","no","yes","768","legacy","4","79","F:/mc-subject-3.csv","legacy","Jazzy James","3.1.9","0","h","NA","h","h","NA","h","484","NA","51394","14496","NA","484","2","legacy","1024","2","48000","-16","experiment","HHHHH","3","odd","232507","61413","224944","NA","228172","10012","228676","NA","233612","10017","210445","NA","233716","234205","233608","233715","Flanker","80","51044","85","yes","1024"
"94.1860465116","94.1860465116","597.360465116","597.360465116","black","no","legacy","legacy","legacy","0","congruent","uniform","1","undefined","1","s","85","0","0","0","85","0","85","0","85","0","0","0","85","85","85","85","09/09/18 21:44:13","600","The main experiment item","yes","F:\","no","mono","no","18","no","white","no","yes","768","legacy","5","79","F:/mc-subject-3.csv","legacy","Jazzy James","3.1.9","0","s","NA","h","h","NA","s","329","NA","51394","14496","NA","329","2","legacy","1024","2","48000","-16","experiment","SSSSS","3","odd","234218","61413","224944","NA","228172","10012","228676","NA","235340","10017","210445","NA","235443","235776","235334","235443","Flanker","81","51373","86","yes","1024"
"93.1034482759","93.1034482759","594.149425287","594.149425287","black","no","legacy","legacy","legacy","0","incongruent","uniform","0","undefined","0","s","86","0","0","0","86","0","86","0","86","0","0","0","86","86","86","86","09/09/18 21:44:13","600","The main experiment item","yes","F:\","no","mono","no","18","no","white","no","yes","768","legacy","6","79","F:/mc-subject-3.csv","legacy","Jazzy James","3.1.9","0","h","NA","h","h","NA","h","318","NA","51394","14496","NA","318","2","legacy","1024","2","48000","-16","experiment","HHSHH","3","odd","235789","61413","224944","NA","228172","10012","228676","NA","236911","10017","210445","NA","237014","237335","236906","237014","Flanker","81","51691","87","yes","1024"
"93.1818181818","93.1818181818","594.409090909","594.409090909","black","no","legacy","legacy","legacy","0","incongruent","uniform","1","undefined","1","s","87","0","0","0","87","0","87","0","87","0","0","0","87","87","87","87","09/09/18 21:44:13","600","The main experiment item","yes","F:\","no","mono","no","18","no","white","no","yes","768","legacy","7","79","F:/mc-subject-3.csv","legacy","Jazzy James","3.1.9","0","s","NA","h","h","NA","s","617","NA","51394","14496","NA","617","2","legacy","1024","2","48000","-16","experiment","HHSHH","3","odd","237852","61413","224944","NA","237349","10012","228676","NA","238951","10017","210445","NA","239054","239676","238947","239053","Flanker","82","52308","88","yes","1024"
"93.2584269663","93.2584269663","593.674157303","593.674157303","black","no","legacy","legacy","legacy","0","congruent","uniform","1","undefined","1","s","88","0","0","0","88","0","88","0","88","0","0","0","88","88","88","88","09/09/18 21:44:13","600","The main experiment item","yes","F:\","no","mono","no","18","no","white","no","yes","768","legacy","8","79","F:/mc-subject-3.csv","legacy","Jazzy James","3.1.9","0","s","NA","h","h","NA","s","529","NA","51394","14496","NA","529","2","legacy","1024","2","48000","-16","experiment","SSSSS","3","odd","240193","61413","224944","NA","237349","10012","239689","NA","241309","10017","210445","NA","241412","241945","241304","241412","Flanker","83","52837","89","yes","1024"
"92.2222222222","92.2222222222","591.722222222","591.722222222","black","no","legacy","legacy","legacy","0","incongruent","uniform","0","undefined","0","s","89","0","0","0","89","0","89","0","89","0","0","0","89","89","89","89","09/09/18 21:44:13","600","The main experiment item","yes","F:\","no","mono","no","18","no","white","no","yes","768","legacy","9","79","F:/mc-subject-3.csv","legacy","Jazzy James","3.1.9","0","h","NA","h","h","NA","h","418","NA","51394","14496","NA","418","2","legacy","1024","2","48000","-16","experiment","HHSHH","3","odd","241956","61413","224944","NA","237349","10012","239689","NA","243065","10017","210445","NA","243168","243590","243060","243167","Flanker","83","53255","90","yes","1024"
"92.3076923077","92.3076923077","592.065934066","592.065934066","black","no","legacy","legacy","legacy","0","congruent","uniform","1","undefined","1","h","90","0","0","0","90","0","90","0","90","0","0","0","90","90","90","90","09/09/18 21:44:13","600","The main experiment item","yes","F:\","no","mono","no","18","no","white","no","yes","768","legacy","10","79","F:/mc-subject-3.csv","legacy","Jazzy James","3.1.9","0","h","NA","h","h","NA","h","623","NA","51394","14496","NA","623","2","legacy","1024","2","48000","-16","experiment","HHHHH","3","odd","244107","61413","224944","NA","243604","10012","239689","NA","245240","10017","210445","NA","245343","245970","245235","245343","Flanker","84","53878","91","yes","1024"
"92.3913043478","92.3913043478","589.489130435","589.489130435","black","no","legacy","legacy","legacy","0","incongruent","uniform","1","undefined","1","s","91","0","0","0","91","0","91","0","91","0","0","0","91","91","91","91","09/09/18 21:44:13","600","The main experiment item","yes","F:\","no","mono","no","18","no","white","no","yes","768","legacy","11","79","F:/mc-subject-3.csv","legacy","Jazzy James","3.1.9","0","s","NA","h","h","NA","s","355","NA","51394","14496","NA","355","2","legacy","1024","2","48000","-16","experiment","HHSHH","3","odd","246487","61413","224944","NA","243604","10012","245983","NA","247594","10017","210445","NA","247697","248057","247588","247697","Flanker","85","54233","92","yes","1024"
"92.4731182796","92.4731182796","587.989247312","587.989247312","black","no","legacy","legacy","legacy","0","congruent","uniform","1","undefined","1","s","92","0","0","0","92","0","92","0","92","0","0","0","92","92","92","92","09/09/18 21:44:13","600","The main experiment item","yes","F:\","no","mono","no","18","no","white","no","yes","768","legacy","12","79","F:/mc-subject-3.csv","legacy","Jazzy James","3.1.9","0","s","NA","h","h","NA","s","450","NA","51394","14496","NA","450","2","legacy","1024","2","48000","-16","experiment","SSSSS","3","odd","248069","61413","224944","NA","243604","10012","245983","NA","249182","10017","210445","NA","249285","249739","249178","249285","Flanker","86","54683","93","yes","1024"
"92.5531914894","92.5531914894","587.138297872","587.138297872","black","no","legacy","legacy","legacy","0","incongruent","uniform","1","undefined","1","s","93","0","0","0","93","0","93","0","93","0","0","0","93","93","93","93","09/09/18 21:44:13","600","The main experiment item","yes","F:\","no","mono","no","18","no","white","no","yes","768","legacy","13","79","F:/mc-subject-3.csv","legacy","Jazzy James","3.1.9","0","s","NA","h","h","NA","s","508","NA","51394","14496","NA","508","2","legacy","1024","2","48000","-16","experiment","HHSHH","3","odd","249753","61413","224944","NA","243604","10012","245983","NA","250866","10017","210445","NA","250971","251483","250857","250971","Flanker","87","55191","94","yes","1024"
"92.6315789474","92.6315789474","586.147368421","586.147368421","black","no","legacy","legacy","legacy","0","incongruent","uniform","1","undefined","1","s","94","0","0","0","94","0","94","0","94","0","0","0","94","94","94","94","09/09/18 21:44:13","600","The main experiment item","yes","F:\","no","mono","no","18","no","white","no","yes","768","legacy","14","79","F:/mc-subject-3.csv","legacy","Jazzy James","3.1.9","0","s","NA","h","h","NA","s","493","NA","51394","14496","NA","493","2","legacy","1024","2","48000","-16","experiment","HHSHH","3","odd","251496","61413","224944","NA","243604","10012","245983","NA","252609","10017","210445","NA","252712","253209","252605","252712","Flanker","88","55684","95","yes","1024"
"92.7083333333","92.7083333333","584.979166667","584.979166667","black","no","legacy","legacy","legacy","0","congruent","uniform","1","undefined","1","h","95","0","0","0","95","0","95","0","95","0","0","0","95","95","95","95","09/09/18 21:44:13","600","The main experiment item","yes","F:\","no","mono","no","18","no","white","no","yes","768","legacy","15","79","F:/mc-subject-3.csv","legacy","Jazzy James","3.1.9","0","h","NA","h","h","NA","h","474","NA","51394","14496","NA","474","2","legacy","1024","2","48000","-16","experiment","HHHHH","3","odd","253221","61413","224944","NA","243604","10012","245983","NA","254335","10017","210445","NA","254438","254918","254330","254438","Flanker","89","56158","96","yes","1024"
"92.7835051546","92.7835051546","584.051546392","584.051546392","black","no","legacy","legacy","legacy","0","incongruent","uniform","1","undefined","1","s","96","0","0","0","96","0","96","0","96","0","0","0","96","96","96","96","09/09/18 21:44:13","600","The main experiment item","yes","F:\","no","mono","no","18","no","white","no","yes","768","legacy","16","79","F:/mc-subject-3.csv","legacy","Jazzy James","3.1.9","0","s","NA","h","h","NA","s","495","NA","51394","14496","NA","495","2","legacy","1024","2","48000","-16","experiment","HHSHH","3","odd","254943","61413","224944","NA","243604","10012","245983","NA","256046","10017","210445","NA","256151","256651","256041","256151","Flanker","90","56653","97","yes","1024"
"92.8571428571","92.8571428571","583.387755102","583.387755102","black","no","legacy","legacy","legacy","0","incongruent","uniform","1","undefined","1","s","97","0","0","0","97","0","97","0","97","0","0","0","97","97","97","97","09/09/18 21:44:13","600","The main experiment item","yes","F:\","no","mono","no","18","no","white","no","yes","768","legacy","17","79","F:/mc-subject-3.csv","legacy","Jazzy James","3.1.9","0","s","NA","h","h","NA","s","519","NA","51394","14496","NA","519","2","legacy","1024","2","48000","-16","experiment","HHSHH","3","odd","256664","61413","224944","NA","243604","10012","245983","NA","257770","10017","210445","NA","257874","258397","257765","257874","Flanker","91","57172","98","yes","1024"
"92.9292929293","92.9292929293","581.696969697","581.696969697","black","no","legacy","legacy","legacy","0","congruent","uniform","1","undefined","1","h","98","0","0","0","98","0","98","0","98","0","0","0","98","98","98","98","09/09/18 21:44:13","600","The main experiment item","yes","F:\","no","mono","no","18","no","white","no","yes","768","legacy","18","79","F:/mc-subject-3.csv","legacy","Jazzy James","3.1.9","0","h","NA","h","h","NA","h","416","NA","51394","14496","NA","416","2","legacy","1024","2","48000","-16","experiment","HHHHH","3","odd","258409","61413","224944","NA","243604","10012","245983","NA","259515","10017","210445","NA","259619","260040","259511","259618","Flanker","92","57588","99","yes","1024"
"93","93","579.84","579.84","black","no","legacy","legacy","legacy","0","congruent","uniform","1","undefined","1","s","99","0","0","0","99","0","99","0","99","0","0","0","99","99","99","99","09/09/18 21:44:13","600","The main experiment item","yes","F:\","no","mono","no","18","no","white","no","yes","768","legacy","19","79","F:/mc-subject-3.csv","legacy","Jazzy James","3.1.9","0","s","NA","h","h","NA","s","396","NA","51394","14496","NA","396","2","legacy","1024","2","48000","-16","experiment","SSSSS","3","odd","260053","61413","224944","NA","243604","10012","245983","NA","261166","10017","210445","NA","261269","261669","261161","261269","Flanker","93","57984","100","yes","1024"
"93.0693069307","93.0693069307","579.158415842","579.158415842","black","no","legacy","legacy","legacy","0","incongruent","uniform","1","undefined","1","h","100","0","0","0","100","0","100","0","100","0","0","0","100","100","100","100","09/09/18 21:44:13","600","The main experiment item","yes","F:\","no","mono","no","18","no","white","no","yes","768","legacy","20","79","F:/mc-subject-3.csv","legacy","Jazzy James","3.1.9","0","h","NA","h","h","NA","h","511","NA","51394","14496","NA","511","2","legacy","1024","2","48000","-16","experiment","SSHSS","3","odd","261683","61413","224944","NA","243604","10012","245983","NA","262795","10017","210445","NA","262898","263414","262789","262897","Flanker","94","58495","101","yes","1024"
"93.137254902","93.137254902","579.843137255","579.843137255","black","no","legacy","legacy","legacy","0","incongruent","uniform","1","undefined","1","h","101","0","0","0","101","0","101","0","101","0","0","0","101","101","101","101","09/09/18 21:44:13","600","The main experiment item","yes","F:\","no","mono","no","18","no","white","no","yes","768","legacy","21","79","F:/mc-subject-3.csv","legacy","Jazzy James","3.1.9","0","h","NA","h","h","NA","h","649","NA","51394","14496","NA","649","2","legacy","1024","2","48000","-16","experiment","SSHSS","3","odd","263427","61413","224944","NA","243604","10012","245983","NA","264534","10017","210445","NA","264636","265291","264530","264636","Flanker","95","59144","102","yes","1024"
"93.2038834951","93.2038834951","579.970873786","579.970873786","black","no","legacy","legacy","legacy","0","incongruent","uniform","1","undefined","1","s","102","0","0","0","102","0","102","0","102","0","0","0","102","102","102","102","09/09/18 21:44:13","600","The main experiment item","yes","F:\","no","mono","no","18","no","white","no","yes","768","legacy","22","79","F:/mc-subject-3.csv","legacy","Jazzy James","3.1.9","0","s","NA","h","h","NA","s","593","NA","51394","14496","NA","593","2","legacy","1024","2","48000","-16","experiment","HHSHH","3","odd","265808","61413","224944","NA","243604","10012","265304","NA","266913","10017","210445","NA","267017","267614","266909","267017","Flanker","96","59737","103","yes","1024"
"93.2692307692","93.2692307692","578.144230769","578.144230769","black","no","legacy","legacy","legacy","0","congruent","uniform","1","undefined","1","h","103","0","0","0","103","0","103","0","103","0","0","0","103","103","103","103","09/09/18 21:44:13","600","The main experiment item","yes","F:\","no","mono","no","18","no","white","no","yes","768","legacy","23","79","F:/mc-subject-3.csv","legacy","Jazzy James","3.1.9","0","h","NA","h","h","NA","h","390","NA","51394","14496","NA","390","2","legacy","1024","2","48000","-16","experiment","HHHHH","3","odd","267631","61413","224944","NA","243604","10012","265304","NA","268744","10017","210445","NA","268849","269244","268740","268849","Flanker","97","60127","104","yes","1024"
"92.380952381","92.380952381","576.066666667","576.066666667","black","no","legacy","legacy","legacy","0","incongruent","uniform","0","undefined","0","h","104","0","0","0","104","0","104","0","104","0","0","0","104","104","104","104","09/09/18 21:44:13","600","The main experiment item","yes","F:\","no","mono","no","18","no","white","no","yes","768","legacy","24","79","F:/mc-subject-3.csv","legacy","Jazzy James","3.1.9","0","s","NA","h","h","NA","s","360","NA","51394","14496","NA","360","2","legacy","1024","2","48000","-16","experiment","SSHSS","3","odd","269256","61413","224944","NA","243604","10012","265304","NA","270359","10017","210445","NA","270462","270826","270355","270461","Flanker","97","60487","105","yes","1024"
"92.4528301887","92.4528301887","575.113207547","575.113207547","black","no","legacy","legacy","legacy","0","congruent","uniform","1","undefined","1","h","105","0","0","0","105","0","105","0","105","0","0","0","105","105","105","105","09/09/18 21:44:13","600","The main experiment item","yes","F:\","no","mono","no","18","no","white","no","yes","768","legacy","25","79","F:/mc-subject-3.csv","legacy","Jazzy James","3.1.9","0","h","NA","h","h","NA","h","475","NA","51394","14496","NA","475","2","legacy","1024","2","48000","-16","experiment","HHHHH","3","odd","271343","61413","224944","NA","270840","10012","265304","NA","272451","10017","210445","NA","272554","273034","272447","272554","Flanker","98","60962","106","yes","1024"
"92.523364486","92.523364486","574.700934579","574.700934579","black","no","legacy","legacy","legacy","0","incongruent","uniform","1","undefined","1","s","106","0","0","0","106","0","106","0","106","0","0","0","106","106","106","106","09/09/18 21:44:13","600","The main experiment item","yes","F:\","no","mono","no","18","no","white","no","yes","768","legacy","26","79","F:/mc-subject-3.csv","legacy","Jazzy James","3.1.9","0","s","NA","h","h","NA","s","531","NA","51394","14496","NA","531","2","legacy","1024","2","48000","-16","experiment","HHSHH","3","odd","273045","61413","224944","NA","270840","10012","265304","NA","274160","10017","210445","NA","274264","274799","274156","274263","Flanker","99","61493","107","yes","1024"
"91.6666666667","91.6666666667","572.416666667","572.416666667","black","no","legacy","legacy","legacy","0","congruent","uniform","0","undefined","0","s","107","0","0","0","107","0","107","0","107","0","0","0","107","107","107","107","09/09/18 21:44:13","600","The main experiment item","yes","F:\","no","mono","no","18","no","white","no","yes","768","legacy","27","79","F:/mc-subject-3.csv","legacy","Jazzy James","3.1.9","0","h","NA","h","h","NA","h","328","NA","51394","14496","NA","328","2","legacy","1024","2","48000","-16","experiment","SSSSS","3","odd","274813","61413","224944","NA","270840","10012","265304","NA","275919","10017","210445","NA","276023","276356","275915","276023","Flanker","99","61821","108","yes","1024"
"90.8256880734","90.8256880734","570.660550459","570.660550459","black","no","legacy","legacy","legacy","0","incongruent","uniform","0","undefined","0","h","108","0","0","0","108","0","108","0","108","0","0","0","108","108","108","108","09/09/18 21:44:13","600","The main experiment item","yes","F:\","no","mono","no","18","no","white","no","yes","768","legacy","28","79","F:/mc-subject-3.csv","legacy","Jazzy James","3.1.9","0","s","NA","h","h","NA","s","381","NA","51394","14496","NA","381","2","legacy","1024","2","48000","-16","experiment","SSHSS","3","odd","276880","61413","224944","NA","276377","10012","265304","NA","277987","10017","210445","NA","278090","278477","277983","278090","Flanker","99","62202","109","yes","1024"
"90.9090909091","90.9090909091","571.363636364","571.363636364","black","no","legacy","legacy","legacy","0","incongruent","uniform","1","undefined","1","s","109","0","0","0","109","0","109","0","109","0","0","0","109","109","109","109","09/09/18 21:44:13","600","The main experiment item","yes","F:\","no","mono","no","18","no","white","no","yes","768","legacy","29","79","F:/mc-subject-3.csv","legacy","Jazzy James","3.1.9","0","s","NA","h","h","NA","s","648","NA","51394","14496","NA","648","2","legacy","1024","2","48000","-16","experiment","HHSHH","3","odd","278992","61413","224944","NA","278488","10012","265304","NA","280097","10017","210445","NA","280200","280853","280089","280200","Flanker","100","62850","110","yes","1024"
"90.990990991","90.990990991","571.243243243","571.243243243","black","no","legacy","legacy","legacy","0","congruent","uniform","1","undefined","1","s","110","0","0","0","110","0","110","0","110","0","0","0","110","110","110","110","09/09/18 21:44:13","600","The main experiment item","yes","F:\","no","mono","no","18","no","white","no","yes","768","legacy","30","79","F:/mc-subject-3.csv","legacy","Jazzy James","3.1.9","0","s","NA","h","h","NA","s","558","NA","51394","14496","NA","558","2","legacy","1024","2","48000","-16","experiment","SSSSS","3","odd","281369","61413","224944","NA","278488","10012","280866","NA","282465","10017","210445","NA","282569","283135","282460","282568","Flanker","101","63408","111","yes","1024"
"91.0714285714","91.0714285714","571.901785714","571.901785714","black","no","legacy","legacy","legacy","0","incongruent","uniform","1","undefined","1","s","111","0","0","0","111","0","111","0","111","0","0","0","111","111","111","111","09/09/18 21:44:13","600","The main experiment item","yes","F:\","no","mono","no","18","no","white","no","yes","768","legacy","31","79","F:/mc-subject-3.csv","legacy","Jazzy James","3.1.9","0","s","NA","h","h","NA","s","645","NA","51394","14496","NA","645","2","legacy","1024","2","48000","-16","experiment","HHSHH","3","odd","283148","61413","224944","NA","278488","10012","280866","NA","284251","10017","210445","NA","284354","285005","284247","284354","Flanker","102","64053","112","yes","1024"
"91.1504424779","91.1504424779","571.486725664","571.486725664","black","no","legacy","legacy","legacy","0","incongruent","uniform","1","undefined","1","h","112","0","0","0","112","0","112","0","112","0","0","0","112","112","112","112","09/09/18 21:44:13","600","The main experiment item","yes","F:\","no","mono","no","18","no","white","no","yes","768","legacy","32","79","F:/mc-subject-3.csv","legacy","Jazzy James","3.1.9","0","h","NA","h","h","NA","h","525","NA","51394","14496","NA","525","2","legacy","1024","2","48000","-16","experiment","SSHSS","3","odd","285521","61413","224944","NA","278488","10012","285016","NA","286630","10017","210445","NA","286733","287263","286624","286733","Flanker","103","64578","113","yes","1024"
"91.2280701754","91.2280701754","570.421052632","570.421052632","black","no","legacy","legacy","legacy","0","congruent","uniform","1","undefined","1","s","113","0","0","0","113","0","113","0","113","0","0","0","113","113","113","113","09/09/18 21:44:13","600","The main experiment item","yes","F:\","no","mono","no","18","no","white","no","yes","768","legacy","33","79","F:/mc-subject-3.csv","legacy","Jazzy James","3.1.9","0","s","NA","h","h","NA","s","450","NA","51394","14496","NA","450","2","legacy","1024","2","48000","-16","experiment","SSSSS","3","odd","287274","61413","224944","NA","278488","10012","285016","NA","288378","10017","210445","NA","288482","288938","288374","288481","Flanker","104","65028","114","yes","1024"
"91.3043478261","91.3043478261","569.565217391","569.565217391","black","no","legacy","legacy","legacy","0","incongruent","uniform","1","undefined","1","h","114","0","0","0","114","0","114","0","114","0","0","0","114","114","114","114","09/09/18 21:44:13","600","The main experiment item","yes","F:\","no","mono","no","18","no","white","no","yes","768","legacy","34","79","F:/mc-subject-3.csv","legacy","Jazzy James","3.1.9","0","h","NA","h","h","NA","h","472","NA","51394","14496","NA","472","2","legacy","1024","2","48000","-16","experiment","SSHSS","3","odd","288953","61413","224944","NA","278488","10012","285016","NA","290071","10017","210445","NA","290176","290652","290066","290175","Flanker","105","65500","115","yes","1024"
"91.3793103448","91.3793103448","568.629310345","568.629310345","black","no","legacy","legacy","legacy","0","congruent","uniform","1","undefined","1","h","115","0","0","0","115","0","115","0","115","0","0","0","115","115","115","115","09/09/18 21:44:13","600","The main experiment item","yes","F:\","no","mono","no","18","no","white","no","yes","768","legacy","35","79","F:/mc-subject-3.csv","legacy","Jazzy James","3.1.9","0","h","NA","h","h","NA","h","461","NA","51394","14496","NA","461","2","legacy","1024","2","48000","-16","experiment","HHHHH","3","odd","290663","61413","224944","NA","278488","10012","285016","NA","291763","10017","210445","NA","291866","292332","291759","291866","Flanker","106","65961","116","yes","1024"
"91.452991453","91.452991453","567.991452991","567.991452991","black","no","legacy","legacy","legacy","0","congruent","uniform","1","undefined","1","s","116","0","0","0","116","0","116","0","116","0","0","0","116","116","116","116","09/09/18 21:44:13","600","The main experiment item","yes","F:\","no","mono","no","18","no","white","no","yes","768","legacy","36","79","F:/mc-subject-3.csv","legacy","Jazzy James","3.1.9","0","s","NA","h","h","NA","s","494","NA","51394","14496","NA","494","2","legacy","1024","2","48000","-16","experiment","SSSSS","3","odd","292343","61413","224944","NA","278488","10012","285016","NA","293441","10017","210445","NA","293544","294044","293437","293544","Flanker","107","66455","117","yes","1024"
"91.5254237288","91.5254237288","567.220338983","567.220338983","black","no","legacy","legacy","legacy","0","congruent","uniform","1","undefined","1","h","117","0","0","0","117","0","117","0","117","0","0","0","117","117","117","117","09/09/18 21:44:13","600","The main experiment item","yes","F:\","no","mono","no","18","no","white","no","yes","768","legacy","37","79","F:/mc-subject-3.csv","legacy","Jazzy James","3.1.9","0","h","NA","h","h","NA","h","477","NA","51394","14496","NA","477","2","legacy","1024","2","48000","-16","experiment","HHHHH","3","odd","294057","61413","224944","NA","278488","10012","285016","NA","295163","10017","210445","NA","295283","295765","295158","295282","Flanker","108","66932","118","yes","1024"
"91.5966386555","91.5966386555","566.949579832","566.949579832","black","no","legacy","legacy","legacy","0","incongruent","uniform","1","undefined","1","h","118","0","0","0","118","0","118","0","118","0","0","0","118","118","118","118","09/09/18 21:44:13","600","The main experiment item","yes","F:\","no","mono","no","18","no","white","no","yes","768","legacy","38","79","F:/mc-subject-3.csv","legacy","Jazzy James","3.1.9","0","h","NA","h","h","NA","h","535","NA","51394","14496","NA","535","2","legacy","1024","2","48000","-16","experiment","SSHSS","3","odd","295777","61413","224944","NA","278488","10012","285016","NA","296880","10017","210445","NA","296983","297523","296875","296982","Flanker","109","67467","119","yes","1024"
"91.6666666667","91.6666666667","566.133333333","566.133333333","black","no","legacy","legacy","legacy","0","congruent","uniform","1","undefined","1","s","119","0","0","0","119","0","119","0","119","0","0","0","119","119","119","119","09/09/18 21:44:13","600","The main experiment item","yes","F:\","no","mono","no","18","no","white","no","yes","768","legacy","39","79","F:/mc-subject-3.csv","legacy","Jazzy James","3.1.9","0","s","NA","h","h","NA","s","469","NA","51394","14496","NA","469","2","legacy","1024","2","48000","-16","experiment","SSSSS","3","odd","297534","61413","224944","NA","278488","10012","285016","NA","298642","10017","210445","NA","298745","299220","298638","298744","Flanker","110","67936","120","yes","1024"
"91.7355371901","91.7355371901","564.950413223","564.950413223","black","no","legacy","legacy","legacy","0","congruent","uniform","1","undefined","1","h","120","0","0","0","120","0","120","0","120","0","0","0","120","120","120","120","09/09/18 21:44:13","600","The main experiment item","yes","F:\","no","mono","no","18","no","white","no","yes","768","legacy","40","79","F:/mc-subject-3.csv","legacy","Jazzy James","3.1.9","0","h","NA","h","h","NA","h","423","NA","51394","14496","NA","423","2","legacy","1024","2","48000","-16","experiment","HHHHH","3","odd","299242","61413","224944","NA","278488","10012","285016","NA","300346","10017","210445","NA","300450","300878","300342","300449","Flanker","111","68359","121","yes","1024"
"91.8032786885","91.8032786885","564.147540984","564.147540984","black","no","legacy","legacy","legacy","0","incongruent","uniform","1","undefined","1","s","121","0","0","0","121","0","121","0","121","0","0","0","121","121","121","121","09/09/18 21:44:13","600","The main experiment item","yes","F:\","no","mono","no","18","no","white","no","yes","768","legacy","41","79","F:/mc-subject-3.csv","legacy","Jazzy James","3.1.9","0","s","NA","h","h","NA","s","467","NA","51394","14496","NA","467","2","legacy","1024","2","48000","-16","experiment","HHSHH","3","odd","300892","61413","224944","NA","278488","10012","285016","NA","301995","10017","210445","NA","302100","302571","301991","302100","Flanker","112","68826","122","yes","1024"
"91.8699186992","91.8699186992","563.804878049","563.804878049","black","no","legacy","legacy","legacy","0","incongruent","uniform","1","undefined","1","h","122","0","0","0","122","0","122","0","122","0","0","0","122","122","122","122","09/09/18 21:44:13","600","The main experiment item","yes","F:\","no","mono","no","18","no","white","no","yes","768","legacy","42","79","F:/mc-subject-3.csv","legacy","Jazzy James","3.1.9","0","h","NA","h","h","NA","h","522","NA","51394","14496","NA","522","2","legacy","1024","2","48000","-16","experiment","SSHSS","3","odd","302582","61413","224944","NA","278488","10012","285016","NA","303680","10017","210445","NA","303783","304310","303676","303782","Flanker","113","69348","123","yes","1024"
"91.935483871","91.935483871","561.846774194","561.846774194","black","no","legacy","legacy","legacy","0","congruent","uniform","1","undefined","1","s","123","0","0","0","123","0","123","0","123","0","0","0","123","123","123","123","09/09/18 21:44:13","600","The main experiment item","yes","F:\","no","mono","no","18","no","white","no","yes","768","legacy","43","79","F:/mc-subject-3.csv","legacy","Jazzy James","3.1.9","0","s","NA","h","h","NA","s","321","NA","51394","14496","NA","321","2","legacy","1024","2","48000","-16","experiment","SSSSS","3","odd","304322","61413","224944","NA","278488","10012","285016","NA","305418","10017","210445","NA","305522","305848","305414","305522","Flanker","114","69669","124","yes","1024"
"91.2","91.2","560.736","560.736","black","no","legacy","legacy","legacy","0","incongruent","uniform","0","undefined","0","s","124","0","0","0","124","0","124","0","124","0","0","0","124","124","124","124","09/09/18 21:44:13","600","The main experiment item","yes","F:\","no","mono","no","18","no","white","no","yes","768","legacy","44","79","F:/mc-subject-3.csv","legacy","Jazzy James","3.1.9","0","h","NA","h","h","NA","h","423","NA","51394","14496","NA","423","2","legacy","1024","2","48000","-16","experiment","HHSHH","3","odd","305861","61413","224944","NA","278488","10012","285016","NA","306966","10017","210445","NA","307070","307498","306962","307070","Flanker","114","70092","125","yes","1024"
"91.2698412698","91.2698412698","560.206349206","560.206349206","black","no","legacy","legacy","legacy","0","incongruent","uniform","1","undefined","1","s","125","0","0","0","125","0","125","0","125","0","0","0","125","125","125","125","09/09/18 21:44:13","600","The main experiment item","yes","F:\","no","mono","no","18","no","white","no","yes","768","legacy","45","79","F:/mc-subject-3.csv","legacy","Jazzy James","3.1.9","0","s","NA","h","h","NA","s","494","NA","51394","14496","NA","494","2","legacy","1024","2","48000","-16","experiment","HHSHH","3","odd","308016","61413","224944","NA","307513","10012","285016","NA","309110","10017","210445","NA","309213","309712","309105","309212","Flanker","115","70586","126","yes","1024"
"91.3385826772","91.3385826772","559.023622047","559.023622047","black","no","legacy","legacy","legacy","0","congruent","uniform","1","undefined","1","s","126","0","0","0","126","0","126","0","126","0","0","0","126","126","126","126","09/09/18 21:44:13","600","The main experiment item","yes","F:\","no","mono","no","18","no","white","no","yes","768","legacy","46","79","F:/mc-subject-3.csv","legacy","Jazzy James","3.1.9","0","s","NA","h","h","NA","s","410","NA","51394","14496","NA","410","2","legacy","1024","2","48000","-16","experiment","SSSSS","3","odd","309725","61413","224944","NA","307513","10012","285016","NA","310824","10017","210445","NA","310927","311342","310820","310927","Flanker","116","70996","127","yes","1024"
"91.40625","91.40625","558.984375","558.984375","black","no","legacy","legacy","legacy","0","congruent","uniform","1","undefined","1","h","127","0","0","0","127","0","127","0","127","0","0","0","127","127","127","127","09/09/18 21:44:13","600","The main experiment item","yes","F:\","no","mono","no","18","no","white","no","yes","768","legacy","47","79","F:/mc-subject-3.csv","legacy","Jazzy James","3.1.9","0","h","NA","h","h","NA","h","554","NA","51394","14496","NA","554","2","legacy","1024","2","48000","-16","experiment","HHHHH","3","odd","311354","61413","224944","NA","307513","10012","285016","NA","312456","10017","210445","NA","312559","313119","312452","312559","Flanker","117","71550","128","yes","1024"
"91.4728682171","91.4728682171","558.069767442","558.069767442","black","no","legacy","legacy","legacy","0","congruent","uniform","1","undefined","1","s","128","0","0","0","128","0","128","0","128","0","0","0","128","128","128","128","09/09/18 21:44:13","600","The main experiment item","yes","F:\","no","mono","no","18","no","white","no","yes","768","legacy","48","79","F:/mc-subject-3.csv","legacy","Jazzy James","3.1.9","0","s","NA","h","h","NA","s","441","NA","51394","14496","NA","441","2","legacy","1024","2","48000","-16","experiment","SSSSS","3","odd","313132","61413","224944","NA","307513","10012","285016","NA","314244","10017","210445","NA","314348","314794","314240","314348","Flanker","118","71991","129","yes","1024"
"91.5384615385","91.5384615385","557.084615385","557.084615385","black","no","legacy","legacy","legacy","0","congruent","uniform","1","undefined","1","h","129","0","0","0","129","0","129","0","129","0","0","0","129","129","129","129","09/09/18 21:44:13","600","The main experiment item","yes","F:\","no","mono","no","18","no","white","no","yes","768","legacy","49","79","F:/mc-subject-3.csv","legacy","Jazzy James","3.1.9","0","h","NA","h","h","NA","h","430","NA","51394","14496","NA","430","2","legacy","1024","2","48000","-16","experiment","HHHHH","3","odd","314806","61413","224944","NA","307513","10012","285016","NA","315918","10017","210445","NA","316021","316457","315914","316021","Flanker","119","72421","130","yes","1024"
"91.6030534351","91.6030534351","555.679389313","555.679389313","black","no","legacy","legacy","legacy","0","congruent","uniform","1","undefined","1","s","130","0","0","0","130","0","130","0","130","0","0","0","130","130","130","130","09/09/18 21:44:13","600","The main experiment item","yes","F:\","no","mono","no","18","no","white","no","yes","768","legacy","50","79","F:/mc-subject-3.csv","legacy","Jazzy James","3.1.9","0","s","NA","h","h","NA","s","373","NA","51394","14496","NA","373","2","legacy","1024","2","48000","-16","experiment","SSSSS","3","odd","316470","61413","224944","NA","307513","10012","285016","NA","317574","10017","210445","NA","317677","318055","317570","317677","Flanker","120","72794","131","yes","1024"
"91.6666666667","91.6666666667","554.924242424","554.924242424","black","no","legacy","legacy","legacy","0","incongruent","uniform","1","undefined","1","h","131","0","0","0","131","0","131","0","131","0","0","0","131","131","131","131","09/09/18 21:44:13","600","The main experiment item","yes","F:\","no","mono","no","18","no","white","no","yes","768","legacy","51","79","F:/mc-subject-3.csv","legacy","Jazzy James","3.1.9","0","h","NA","h","h","NA","h","456","NA","51394","14496","NA","456","2","legacy","1024","2","48000","-16","experiment","SSHSS","3","odd","318068","61413","224944","NA","307513","10012","285016","NA","319182","10017","210445","NA","319286","319750","319178","319285","Flanker","121","73250","132","yes","1024"
"91.7293233083","91.7293233083","554.157894737","554.157894737","black","no","legacy","legacy","legacy","0","incongruent","uniform","1","undefined","1","s","132","0","0","0","132","0","132","0","132","0","0","0","132","132","132","132","09/09/18 21:44:13","600","The main experiment item","yes","F:\","no","mono","no","18","no","white","no","yes","768","legacy","52","79","F:/mc-subject-3.csv","legacy","Jazzy James","3.1.9","0","s","NA","h","h","NA","s","453","NA","51394","14496","NA","453","2","legacy","1024","2","48000","-16","experiment","HHSHH","3","odd","319764","61413","224944","NA","307513","10012","285016","NA","320874","10017","210445","NA","320977","321435","320869","320976","Flanker","122","73703","133","yes","1024"
"91.7910447761","91.7910447761","553.888059701","553.888059701","black","no","legacy","legacy","legacy","0","incongruent","uniform","1","undefined","1","h","133","0","0","0","133","0","133","0","133","0","0","0","133","133","133","133","09/09/18 21:44:13","600","The main experiment item","yes","F:\","no","mono","no","18","no","white","no","yes","768","legacy","53","79","F:/mc-subject-3.csv","legacy","Jazzy James","3.1.9","0","h","NA","h","h","NA","h","518","NA","51394","14496","NA","518","2","legacy","1024","2","48000","-16","experiment","SSHSS","3","odd","321456","61413","224944","NA","307513","10012","285016","NA","322566","10017","210445","NA","322669","323193","322561","322669","Flanker","123","74221","134","yes","1024"
"91.1111111111","91.1111111111","552.925925926","552.925925926","black","no","legacy","legacy","legacy","0","congruent","uniform","0","undefined","0","h","134","0","0","0","134","0","134","0","134","0","0","0","134","134","134","134","09/09/18 21:44:13","600","The main experiment item","yes","F:\","no","mono","no","18","no","white","no","yes","768","legacy","54","79","F:/mc-subject-3.csv","legacy","Jazzy James","3.1.9","0","s","NA","h","h","NA","s","424","NA","51394","14496","NA","424","2","legacy","1024","2","48000","-16","experiment","HHHHH","3","odd","323209","61413","224944","NA","307513","10012","285016","NA","324317","10017","210445","NA","324420","324850","324313","324420","Flanker","123","74645","135","yes","1024"
"91.1764705882","91.1764705882","552.235294118","552.235294118","black","no","legacy","legacy","legacy","0","congruent","uniform","1","undefined","1","s","135","0","0","0","135","0","135","0","135","0","0","0","135","135","135","135","09/09/18 21:44:13","600","The main experiment item","yes","F:\","no","mono","no","18","no","white","no","yes","768","legacy","55","79","F:/mc-subject-3.csv","legacy","Jazzy James","3.1.9","0","s","NA","h","h","NA","s","459","NA","51394","14496","NA","459","2","legacy","1024","2","48000","-16","experiment","SSSSS","3","odd","325366","61413","224944","NA","324863","10012","285016","NA","326470","10017","210445","NA","326573","327038","326465","326572","Flanker","124","75104","136","yes","1024"
"91.2408759124","91.2408759124","551.569343066","551.569343066","black","no","legacy","legacy","legacy","0","incongruent","uniform","1","undefined","1","h","136","0","0","0","136","0","136","0","136","0","0","0","136","136","136","136","09/09/18 21:44:13","600","The main experiment item","yes","F:\","no","mono","no","18","no","white","no","yes","768","legacy","56","79","F:/mc-subject-3.csv","legacy","Jazzy James","3.1.9","0","h","NA","h","h","NA","h","461","NA","51394","14496","NA","461","2","legacy","1024","2","48000","-16","experiment","SSHSS","3","odd","327052","61413","224944","NA","324863","10012","285016","NA","328165","10017","210445","NA","328269","328735","328161","328269","Flanker","125","75565","137","yes","1024"
"91.3043478261","91.3043478261","550.782608696","550.782608696","black","no","legacy","legacy","legacy","0","congruent","uniform","1","undefined","1","h","137","0","0","0","137","0","137","0","137","0","0","0","137","137","137","137","09/09/18 21:44:13","600","The main experiment item","yes","F:\","no","mono","no","18","no","white","no","yes","768","legacy","57","79","F:/mc-subject-3.csv","legacy","Jazzy James","3.1.9","0","h","NA","h","h","NA","h","443","NA","51394","14496","NA","443","2","legacy","1024","2","48000","-16","experiment","HHHHH","3","odd","328748","61413","224944","NA","324863","10012","285016","NA","329857","10017","210445","NA","329961","330409","329852","329960","Flanker","126","76008","138","yes","1024"
