"acc","accuracy","average_response_time","avg_rt","background","bidi","canvas_backend","clock_backend","color_backend","compensation","condition","coordinates","correct","correct_instructions1","correct_keyboard_response","correct_response","count_ISI","count_blcok1","count_block2","count_block3","count_errorFeedback","count_experiment","count_faster","count_finish","count_fixation","count_instructions1","count_instructions2","count_instructions3","count_keyboard_response","count_new_logger","count_sequence","count_stimulus","datetime","deadline","description","disable_garbage_collection","experiment_path","font_bold","font_family","font_italic","font_size","font_underline","foreground","form_clicks","fullscreen","height","keyboard_backend","live_row","live_row_blcok1","logfile","mouse_backend","opensesame_codename","opensesame_version","repeat_cycle","response","response_finish","response_instructions1","response_instructions2","response_instructions3","response_keyboard_response","response_time","response_time_finish","response_time_instructions1","response_time_instructions2","response_time_instructions3","response_time_keyboard_response","round_decimals","sampler_backend","sound_buf_size","sound_channels","sound_freq","sound_sample_size","start","stimulus","subject_nr","subject_parity","time_ISI","time_blcok1","time_block2","time_block3","time_errorFeedback","time_experiment","time_faster","time_finish","time_fixation","time_instructions1","time_instructions2","time_instructions3","time_keyboard_response","time_new_logger","time_sequence","time_stimulus","title","total_correct","total_response_time","total_responses","uniform_coordinates","width"
"100","100","854","854","black","no","legacy","legacy","legacy","0","congruent","uniform","1","undefined","1","s","0","0","0","0","0","0","0","0","0","0","0","0","0","0","0","0","09/09/18 21:19:43","1500","The main experiment item","yes","F:\","no","mono","no","18","no","white","no","yes","768","legacy","0","0","F:/mc-subject-2.csv","legacy","Jazzy James","3.1.9","0","s","NA","s","NA","NA","s","854","NA","39947","NA","NA","854","2","legacy","1024","2","48000","-16","experiment","SSSSS","2","even","NA","42664","NA","NA","NA","2708","NA","NA","42782","2714","NA","NA","42885","43740","42778","42885","Flanker","1","854","1","yes","1024"
"100","100","1004.5","1004.5","black","no","legacy","legacy","legacy","0","incongruent","uniform","1","undefined","1","s","1","0","0","0","1","0","1","0","1","0","0","0","1","1","1","1","09/09/18 21:19:43","1500","The main experiment item","yes","F:\","no","mono","no","18","no","white","no","yes","768","legacy","1","1","F:/mc-subject-2.csv","legacy","Jazzy James","3.1.9","0","s","NA","s","NA","NA","s","1155","NA","39947","NA","NA","1155","2","legacy","1024","2","48000","-16","experiment","HHSHH","2","even","44313","42664","NA","NA","NA","2708","NA","NA","45422","2714","NA","NA","45525","46681","45418","45525","Flanker","2","2009","2","yes","1024"
"100","100","861","861","black","no","legacy","legacy","legacy","0","congruent","uniform","1","undefined","1","h","2","0","0","0","2","0","2","0","2","0","0","0","2","2","2","2","09/09/18 21:19:43","1500","The main experiment item","yes","F:\","no","mono","no","18","no","white","no","yes","768","legacy","2","2","F:/mc-subject-2.csv","legacy","Jazzy James","3.1.9","0","h","NA","s","NA","NA","h","574","NA","39947","NA","NA","574","2","legacy","1024","2","48000","-16","experiment","HHHHH","2","even","46696","42664","NA","NA","NA","2708","NA","NA","47797","2714","NA","NA","47900","48475","47793","47899","Flanker","3","2583","3","yes","1024"
"100","100","772.25","772.25","black","no","legacy","legacy","legacy","0","incongruent","uniform","1","undefined","1","s","3","0","0","0","3","0","3","0","3","0","0","0","3","3","3","3","09/09/18 21:19:43","1500","The main experiment item","yes","F:\","no","mono","no","18","no","white","no","yes","768","legacy","3","3","F:/mc-subject-2.csv","legacy","Jazzy James","3.1.9","0","s","NA","s","NA","NA","s","506","NA","39947","NA","NA","506","2","legacy","1024","2","48000","-16","experiment","HHSHH","2","even","48488","42664","NA","NA","NA","2708","NA","NA","49591","2714","NA","NA","49695","50203","49587","49694","Flanker","4","3089","4","yes","1024"
"100","100","694","694","black","no","legacy","legacy","legacy","0","incongruent","uniform","1","undefined","1","s","4","0","0","0","4","0","4","0","4","0","0","0","4","4","4","4","09/09/18 21:19:43","1500","The main experiment item","yes","F:\","no","mono","no","18","no","white","no","yes","768","legacy","4","4","F:/mc-subject-2.csv","legacy","Jazzy James","3.1.9","0","s","NA","s","NA","NA","s","381","NA","39947","NA","NA","381","2","legacy","1024","2","48000","-16","experiment","HHSHH","2","even","50229","42664","NA","NA","NA","2708","NA","NA","51336","2714","NA","NA","51439","51821","51331","51439","Flanker","5","3470","5","yes","1024"
"100","100","649.333333333","649.333333333","black","no","legacy","legacy","legacy","0","congruent","uniform","1","undefined","1","s","5","0","0","0","5","0","5","0","5","0","0","0","5","5","5","5","09/09/18 21:19:43","1500","The main experiment item","yes","F:\","no","mono","no","18","no","white","no","yes","768","legacy","5","5","F:/mc-subject-2.csv","legacy","Jazzy James","3.1.9","0","s","NA","s","NA","NA","s","426","NA","39947","NA","NA","426","2","legacy","1024","2","48000","-16","experiment","SSSSS","2","even","51836","42664","NA","NA","NA","2708","NA","NA","52943","2714","NA","NA","53047","53475","52939","53047","Flanker","6","3896","6","yes","1024"
"100","100","610.285714286","610.285714286","black","no","legacy","legacy","legacy","0","incongruent","uniform","1","undefined","1","s","6","0","0","0","6","0","6","0","6","0","0","0","6","6","6","6","09/09/18 21:19:43","1500","The main experiment item","yes","F:\","no","mono","no","18","no","white","no","yes","768","legacy","6","6","F:/mc-subject-2.csv","legacy","Jazzy James","3.1.9","0","s","NA","s","NA","NA","s","376","NA","39947","NA","NA","376","2","legacy","1024","2","48000","-16","experiment","HHSHH","2","even","53492","42664","NA","NA","NA","2708","NA","NA","54600","2714","NA","NA","54706","55083","54596","54705","Flanker","7","4272","7","yes","1024"
"100","100","588.875","588.875","black","no","legacy","legacy","legacy","0","congruent","uniform","1","undefined","1","s","7","0","0","0","7","0","7","0","7","0","0","0","7","7","7","7","09/09/18 21:19:43","1500","The main experiment item","yes","F:\","no","mono","no","18","no","white","no","yes","768","legacy","7","7","F:/mc-subject-2.csv","legacy","Jazzy James","3.1.9","0","s","NA","s","NA","NA","s","439","NA","39947","NA","NA","439","2","legacy","1024","2","48000","-16","experiment","SSSSS","2","even","55095","42664","NA","NA","NA","2708","NA","NA","56197","2714","NA","NA","56301","56742","56193","56300","Flanker","8","4711","8","yes","1024"
"100","100","586.333333333","586.333333333","black","no","legacy","legacy","legacy","0","incongruent","uniform","1","undefined","1","h","8","0","0","0","8","0","8","0","8","0","0","0","8","8","8","8","09/09/18 21:19:43","1500","The main experiment item","yes","F:\","no","mono","no","18","no","white","no","yes","768","legacy","8","8","F:/mc-subject-2.csv","legacy","Jazzy James","3.1.9","0","h","NA","s","NA","NA","h","566","NA","39947","NA","NA","566","2","legacy","1024","2","48000","-16","experiment","SSHSS","2","even","56755","42664","NA","NA","NA","2708","NA","NA","57857","2714","NA","NA","57961","58528","57853","57960","Flanker","9","5277","9","yes","1024"
"90","90","566.5","566.5","black","no","legacy","legacy","legacy","0","incongruent","uniform","0","undefined","0","s","9","0","0","0","9","0","9","0","9","0","0","0","9","9","9","9","09/09/18 21:19:43","1500","The main experiment item","yes","F:\","no","mono","no","18","no","white","no","yes","768","legacy","9","9","F:/mc-subject-2.csv","legacy","Jazzy James","3.1.9","0","h","NA","s","NA","NA","h","388","NA","39947","NA","NA","388","2","legacy","1024","2","48000","-16","experiment","HHSHH","2","even","58540","42664","NA","NA","NA","2708","NA","NA","59655","2714","NA","NA","59761","60150","59649","59761","Flanker","9","5665","10","yes","1024"
"90.9090909091","90.9090909091","575.454545455","575.454545455","black","no","legacy","legacy","legacy","0","incongruent","uniform","1","undefined","1","h","10","0","0","0","10","0","10","0","10","0","0","0","10","10","10","10","09/09/18 21:19:43","1500","The main experiment item","yes","F:\","no","mono","no","18","no","white","no","yes","768","legacy","10","10","F:/mc-subject-2.csv","legacy","Jazzy James","3.1.9","0","h","NA","s","NA","NA","h","665","NA","39947","NA","NA","665","2","legacy","1024","2","48000","-16","experiment","SSHSS","2","even","60666","42664","NA","NA","60163","2708","NA","NA","61771","2714","NA","NA","61874","62541","61766","61874","Flanker","10","6330","11","yes","1024"
"91.6666666667","91.6666666667","562.416666667","562.416666667","black","no","legacy","legacy","legacy","0","incongruent","uniform","1","undefined","1","s","11","0","0","0","11","0","11","0","11","0","0","0","11","11","11","11","09/09/18 21:19:43","1500","The main experiment item","yes","F:\","no","mono","no","18","no","white","no","yes","768","legacy","11","11","F:/mc-subject-2.csv","legacy","Jazzy James","3.1.9","0","s","NA","s","NA","NA","s","419","NA","39947","NA","NA","419","2","legacy","1024","2","48000","-16","experiment","HHSHH","2","even","62553","42664","NA","NA","60163","2708","NA","NA","63652","2714","NA","NA","63755","64176","63648","63755","Flanker","11","6749","12","yes","1024"
"92.3076923077","92.3076923077","553.384615385","553.384615385","black","no","legacy","legacy","legacy","0","congruent","uniform","1","undefined","1","h","12","0","0","0","12","0","12","0","12","0","0","0","12","12","12","12","09/09/18 21:19:43","1500","The main experiment item","yes","F:\","no","mono","no","18","no","white","no","yes","768","legacy","12","12","F:/mc-subject-2.csv","legacy","Jazzy James","3.1.9","0","h","NA","s","NA","NA","h","445","NA","39947","NA","NA","445","2","legacy","1024","2","48000","-16","experiment","HHHHH","2","even","64189","42664","NA","NA","60163","2708","NA","NA","65285","2714","NA","NA","65388","65834","65281","65388","Flanker","12","7194","13","yes","1024"
"92.8571428571","92.8571428571","554.214285714","554.214285714","black","no","legacy","legacy","legacy","0","incongruent","uniform","1","undefined","1","h","13","0","0","0","13","0","13","0","13","0","0","0","13","13","13","13","09/09/18 21:19:43","1500","The main experiment item","yes","F:\","no","mono","no","18","no","white","no","yes","768","legacy","13","13","F:/mc-subject-2.csv","legacy","Jazzy James","3.1.9","0","h","NA","s","NA","NA","h","565","NA","39947","NA","NA","565","2","legacy","1024","2","48000","-16","experiment","SSHSS","2","even","65845","42664","NA","NA","60163","2708","NA","NA","66944","2714","NA","NA","67047","67614","66940","67046","Flanker","13","7759","14","yes","1024"
"93.3333333333","93.3333333333","546.933333333","546.933333333","black","no","legacy","legacy","legacy","0","congruent","uniform","1","undefined","1","s","14","0","0","0","14","0","14","0","14","0","0","0","14","14","14","14","09/09/18 21:19:43","1500","The main experiment item","yes","F:\","no","mono","no","18","no","white","no","yes","768","legacy","14","14","F:/mc-subject-2.csv","legacy","Jazzy James","3.1.9","0","s","NA","s","NA","NA","s","445","NA","39947","NA","NA","445","2","legacy","1024","2","48000","-16","experiment","SSSSS","2","even","67627","42664","NA","NA","60163","2708","NA","NA","68727","2714","NA","NA","68831","69278","68723","68831","Flanker","14","8204","15","yes","1024"
"93.75","93.75","538","538","black","no","legacy","legacy","legacy","0","congruent","uniform","1","undefined","1","s","15","0","0","0","15","0","15","0","15","0","0","0","15","15","15","15","09/09/18 21:19:43","1500","The main experiment item","yes","F:\","no","mono","no","18","no","white","no","yes","768","legacy","15","15","F:/mc-subject-2.csv","legacy","Jazzy James","3.1.9","0","s","NA","s","NA","NA","s","404","NA","39947","NA","NA","404","2","legacy","1024","2","48000","-16","experiment","SSSSS","2","even","69290","42664","NA","NA","60163","2708","NA","NA","70392","2714","NA","NA","70495","70900","70387","70495","Flanker","15","8608","16","yes","1024"
"94.1176470588","94.1176470588","539.235294118","539.235294118","black","no","legacy","legacy","legacy","0","incongruent","uniform","1","undefined","1","s","16","0","0","0","16","0","16","0","16","0","0","0","16","16","16","16","09/09/18 21:19:43","1500","The main experiment item","yes","F:\","no","mono","no","18","no","white","no","yes","768","legacy","16","16","F:/mc-subject-2.csv","legacy","Jazzy James","3.1.9","0","s","NA","s","NA","NA","s","559","NA","39947","NA","NA","559","2","legacy","1024","2","48000","-16","experiment","HHSHH","2","even","70915","42664","NA","NA","60163","2708","NA","NA","72021","2714","NA","NA","72125","72685","72016","72124","Flanker","16","9167","17","yes","1024"
"94.4444444444","94.4444444444","533.222222222","533.222222222","black","no","legacy","legacy","legacy","0","incongruent","uniform","1","undefined","1","s","17","0","0","0","17","0","17","0","17","0","0","0","17","17","17","17","09/09/18 21:19:43","1500","The main experiment item","yes","F:\","no","mono","no","18","no","white","no","yes","768","legacy","17","17","F:/mc-subject-2.csv","legacy","Jazzy James","3.1.9","0","s","NA","s","NA","NA","s","431","NA","39947","NA","NA","431","2","legacy","1024","2","48000","-16","experiment","HHSHH","2","even","72697","42664","NA","NA","60163","2708","NA","NA","73798","2714","NA","NA","73902","74335","73794","73902","Flanker","17","9598","18","yes","1024"
"94.7368421053","94.7368421053","527.368421053","527.368421053","black","no","legacy","legacy","legacy","0","congruent","uniform","1","undefined","1","s","18","0","0","0","18","0","18","0","18","0","0","0","18","18","18","18","09/09/18 21:19:43","1500","The main experiment item","yes","F:\","no","mono","no","18","no","white","no","yes","768","legacy","18","18","F:/mc-subject-2.csv","legacy","Jazzy James","3.1.9","0","s","NA","s","NA","NA","s","422","NA","39947","NA","NA","422","2","legacy","1024","2","48000","-16","experiment","SSSSS","2","even","74349","42664","NA","NA","60163","2708","NA","NA","75463","2714","NA","NA","75566","75990","75458","75565","Flanker","18","10020","19","yes","1024"
"95","95","529.45","529.45","black","no","legacy","legacy","legacy","0","incongruent","uniform","1","undefined","1","h","19","0","0","0","19","0","19","0","19","0","0","0","19","19","19","19","09/09/18 21:19:43","1500","The main experiment item","yes","F:\","no","mono","no","18","no","white","no","yes","768","legacy","19","19","F:/mc-subject-2.csv","legacy","Jazzy James","3.1.9","0","h","NA","s","NA","NA","h","569","NA","39947","NA","NA","569","2","legacy","1024","2","48000","-16","experiment","SSHSS","2","even","76001","42664","NA","NA","60163","2708","NA","NA","77118","2714","NA","NA","77222","77793","77114","77222","Flanker","19","10589","20","yes","1024"
"95.2380952381","95.2380952381","523.666666667","523.666666667","black","no","legacy","legacy","legacy","0","congruent","uniform","1","undefined","1","s","20","0","0","0","20","0","20","0","20","0","0","0","20","20","20","20","09/09/18 21:19:43","1500","The main experiment item","yes","F:\","no","mono","no","18","no","white","no","yes","768","legacy","20","20","F:/mc-subject-2.csv","legacy","Jazzy James","3.1.9","0","s","NA","s","NA","NA","s","408","NA","39947","NA","NA","408","2","legacy","1024","2","48000","-16","experiment","SSSSS","2","even","77805","42664","NA","NA","60163","2708","NA","NA","78905","2714","NA","NA","79009","79419","78901","79008","Flanker","20","10997","21","yes","1024"
"95.4545454545","95.4545454545","518.318181818","518.318181818","black","no","legacy","legacy","legacy","0","incongruent","uniform","1","undefined","1","h","21","0","0","0","21","0","21","0","21","0","0","0","21","21","21","21","09/09/18 21:19:43","1500","The main experiment item","yes","F:\","no","mono","no","18","no","white","no","yes","768","legacy","21","21","F:/mc-subject-2.csv","legacy","Jazzy James","3.1.9","0","h","NA","s","NA","NA","h","406","NA","39947","NA","NA","406","2","legacy","1024","2","48000","-16","experiment","SSHSS","2","even","79431","42664","NA","NA","60163","2708","NA","NA","80537","2714","NA","NA","80641","81049","80532","80641","Flanker","21","11403","22","yes","1024"
"95.652173913","95.652173913","515","515","black","no","legacy","legacy","legacy","0","incongruent","uniform","1","undefined","1","s","22","0","0","0","22","0","22","0","22","0","0","0","22","22","22","22","09/09/18 21:19:43","1500","The main experiment item","yes","F:\","no","mono","no","18","no","white","no","yes","768","legacy","22","22","F:/mc-subject-2.csv","legacy","Jazzy James","3.1.9","0","s","NA","s","NA","NA","s","442","NA","39947","NA","NA","442","2","legacy","1024","2","48000","-16","experiment","HHSHH","2","even","81061","42664","NA","NA","60163","2708","NA","NA","82162","2714","NA","NA","82265","82709","82157","82265","Flanker","22","11845","23","yes","1024"
"95.8333333333","95.8333333333","515.541666667","515.541666667","black","no","legacy","legacy","legacy","0","incongruent","uniform","1","undefined","1","s","23","0","0","0","23","0","23","0","23","0","0","0","23","23","23","23","09/09/18 21:19:43","1500","The main experiment item","yes","F:\","no","mono","no","18","no","white","no","yes","768","legacy","23","23","F:/mc-subject-2.csv","legacy","Jazzy James","3.1.9","0","s","NA","s","NA","NA","s","528","NA","39947","NA","NA","528","2","legacy","1024","2","48000","-16","experiment","HHSHH","2","even","82722","42664","NA","NA","60163","2708","NA","NA","83830","2714","NA","NA","83933","84463","83826","83933","Flanker","23","12373","24","yes","1024"
"92","92","511.16","511.16","black","no","legacy","legacy","legacy","0","incongruent","uniform","0","undefined","0","h","24","0","0","0","24","0","24","0","24","0","0","0","24","24","24","24","09/09/18 21:19:43","1500","The main experiment item","yes","F:\","no","mono","no","18","no","white","no","yes","768","legacy","24","24","F:/mc-subject-2.csv","legacy","Jazzy James","3.1.9","0","s","NA","s","NA","NA","s","406","NA","39947","NA","NA","406","2","legacy","1024","2","48000","-16","experiment","SSHSS","2","even","84480","42664","NA","NA","60163","2708","NA","NA","85579","2714","NA","NA","85682","86090","85575","85682","Flanker","23","12779","25","yes","1024"
"92.3076923077","92.3076923077","511.307692308","511.307692308","black","no","legacy","legacy","legacy","0","congruent","uniform","1","undefined","1","h","25","0","0","0","25","0","25","0","25","0","0","0","25","25","25","25","09/09/18 21:19:43","1500","The main experiment item","yes","F:\","no","mono","no","18","no","white","no","yes","768","legacy","25","25","F:/mc-subject-2.csv","legacy","Jazzy James","3.1.9","0","h","NA","s","NA","NA","h","515","NA","39947","NA","NA","515","2","legacy","1024","2","48000","-16","experiment","HHHHH","2","even","86605","42664","NA","NA","86102","2708","NA","NA","87708","2714","NA","NA","87811","88328","87704","87811","Flanker","24","13294","26","yes","1024"
"92.5925925926","92.5925925926","513.148148148","513.148148148","black","no","legacy","legacy","legacy","0","incongruent","uniform","1","undefined","1","h","26","0","0","0","26","0","26","0","26","0","0","0","26","26","26","26","09/09/18 21:19:43","1500","The main experiment item","yes","F:\","no","mono","no","18","no","white","no","yes","768","legacy","26","26","F:/mc-subject-2.csv","legacy","Jazzy James","3.1.9","0","h","NA","s","NA","NA","h","561","NA","39947","NA","NA","561","2","legacy","1024","2","48000","-16","experiment","SSHSS","2","even","88340","42664","NA","NA","86102","2708","NA","NA","89462","2714","NA","NA","89566","90129","89457","89565","Flanker","25","13855","27","yes","1024"
"92.8571428571","92.8571428571","512","512","black","no","legacy","legacy","legacy","0","incongruent","uniform","1","undefined","1","h","27","0","0","0","27","0","27","0","27","0","0","0","27","27","27","27","09/09/18 21:19:43","1500","The main experiment item","yes","F:\","no","mono","no","18","no","white","no","yes","768","legacy","27","27","F:/mc-subject-2.csv","legacy","Jazzy James","3.1.9","0","h","NA","s","NA","NA","h","481","NA","39947","NA","NA","481","2","legacy","1024","2","48000","-16","experiment","SSHSS","2","even","90140","42664","NA","NA","86102","2708","NA","NA","91242","2714","NA","NA","91345","91827","91238","91345","Flanker","26","14336","28","yes","1024"
"93.1034482759","93.1034482759","510.137931034","510.137931034","black","no","legacy","legacy","legacy","0","congruent","uniform","1","undefined","1","s","28","0","0","0","28","0","28","0","28","0","0","0","28","28","28","28","09/09/18 21:19:43","1500","The main experiment item","yes","F:\","no","mono","no","18","no","white","no","yes","768","legacy","28","28","F:/mc-subject-2.csv","legacy","Jazzy James","3.1.9","0","s","NA","s","NA","NA","s","458","NA","39947","NA","NA","458","2","legacy","1024","2","48000","-16","experiment","SSSSS","2","even","91841","42664","NA","NA","86102","2708","NA","NA","92944","2714","NA","NA","93047","93507","92939","93047","Flanker","27","14794","29","yes","1024"
"93.3333333333","93.3333333333","507.7","507.7","black","no","legacy","legacy","legacy","0","congruent","uniform","1","undefined","1","h","29","0","0","0","29","0","29","0","29","0","0","0","29","29","29","29","09/09/18 21:19:43","1500","The main experiment item","yes","F:\","no","mono","no","18","no","white","no","yes","768","legacy","29","29","F:/mc-subject-2.csv","legacy","Jazzy James","3.1.9","0","h","NA","s","NA","NA","h","437","NA","39947","NA","NA","437","2","legacy","1024","2","48000","-16","experiment","HHHHH","2","even","93523","42664","NA","NA","86102","2708","NA","NA","94628","2714","NA","NA","94733","95172","94624","94733","Flanker","28","15231","30","yes","1024"
"93.5483870968","93.5483870968","506.451612903","506.451612903","black","no","legacy","legacy","legacy","0","congruent","uniform","1","undefined","1","s","30","0","0","0","30","0","30","0","30","0","0","0","30","30","30","30","09/09/18 21:19:43","1500","The main experiment item","yes","F:\","no","mono","no","18","no","white","no","yes","768","legacy","30","30","F:/mc-subject-2.csv","legacy","Jazzy James","3.1.9","0","s","NA","s","NA","NA","s","469","NA","39947","NA","NA","469","2","legacy","1024","2","48000","-16","experiment","SSSSS","2","even","95184","42664","NA","NA","86102","2708","NA","NA","96304","2714","NA","NA","96407","96878","96298","96407","Flanker","29","15700","31","yes","1024"
"93.75","93.75","506.21875","506.21875","black","no","legacy","legacy","legacy","0","incongruent","uniform","1","undefined","1","s","31","0","0","0","31","0","31","0","31","0","0","0","31","31","31","31","09/09/18 21:19:43","1500","The main experiment item","yes","F:\","no","mono","no","18","no","white","no","yes","768","legacy","31","31","F:/mc-subject-2.csv","legacy","Jazzy James","3.1.9","0","s","NA","s","NA","NA","s","499","NA","39947","NA","NA","499","2","legacy","1024","2","48000","-16","experiment","HHSHH","2","even","96891","42664","NA","NA","86102","2708","NA","NA","98001","2714","NA","NA","98104","98605","97996","98104","Flanker","30","16199","32","yes","1024"
"93.9393939394","93.9393939394","503.818181818","503.818181818","black","no","legacy","legacy","legacy","0","incongruent","uniform","1","undefined","1","s","32","0","0","0","32","0","32","0","32","0","0","0","32","32","32","32","09/09/18 21:19:43","1500","The main experiment item","yes","F:\","no","mono","no","18","no","white","no","yes","768","legacy","32","32","F:/mc-subject-2.csv","legacy","Jazzy James","3.1.9","0","s","NA","s","NA","NA","s","427","NA","39947","NA","NA","427","2","legacy","1024","2","48000","-16","experiment","HHSHH","2","even","98616","42664","NA","NA","86102","2708","NA","NA","99721","2714","NA","NA","99824","100253","99717","99824","Flanker","31","16626","33","yes","1024"
"94.1176470588","94.1176470588","503.235294118","503.235294118","black","no","legacy","legacy","legacy","0","congruent","uniform","1","undefined","1","h","33","0","0","0","33","0","33","0","33","0","0","0","33","33","33","33","09/09/18 21:19:43","1500","The main experiment item","yes","F:\","no","mono","no","18","no","white","no","yes","768","legacy","33","33","F:/mc-subject-2.csv","legacy","Jazzy James","3.1.9","0","h","NA","s","NA","NA","h","484","NA","39947","NA","NA","484","2","legacy","1024","2","48000","-16","experiment","HHHHH","2","even","100269","42664","NA","NA","86102","2708","NA","NA","101371","2714","NA","NA","101474","101960","101367","101474","Flanker","32","17110","34","yes","1024"
"94.2857142857","94.2857142857","502.371428571","502.371428571","black","no","legacy","legacy","legacy","0","incongruent","uniform","1","undefined","1","s","34","0","0","0","34","0","34","0","34","0","0","0","34","34","34","34","09/09/18 21:19:43","1500","The main experiment item","yes","F:\","no","mono","no","18","no","white","no","yes","768","legacy","34","34","F:/mc-subject-2.csv","legacy","Jazzy James","3.1.9","0","s","NA","s","NA","NA","s","473","NA","39947","NA","NA","473","2","legacy","1024","2","48000","-16","experiment","HHSHH","2","even","101972","42664","NA","NA","86102","2708","NA","NA","103078","2714","NA","NA","103182","103657","103074","103181","Flanker","33","17583","35","yes","1024"
"94.4444444444","94.4444444444","500.166666667","500.166666667","black","no","legacy","legacy","legacy","0","congruent","uniform","1","undefined","1","s","35","0","0","0","35","0","35","0","35","0","0","0","35","35","35","35","09/09/18 21:19:43","1500","The main experiment item","yes","F:\","no","mono","no","18","no","white","no","yes","768","legacy","35","35","F:/mc-subject-2.csv","legacy","Jazzy James","3.1.9","0","s","NA","s","NA","NA","s","423","NA","39947","NA","NA","423","2","legacy","1024","2","48000","-16","experiment","SSSSS","2","even","103671","42664","NA","NA","86102","2708","NA","NA","104785","2714","NA","NA","104890","105316","104781","104890","Flanker","34","18006","36","yes","1024"
"94.5945945946","94.5945945946","497.405405405","497.405405405","black","no","legacy","legacy","legacy","0","congruent","uniform","1","undefined","1","h","36","0","0","0","36","0","36","0","36","0","0","0","36","36","36","36","09/09/18 21:19:43","1500","The main experiment item","yes","F:\","no","mono","no","18","no","white","no","yes","768","legacy","36","36","F:/mc-subject-2.csv","legacy","Jazzy James","3.1.9","0","h","NA","s","NA","NA","h","398","NA","39947","NA","NA","398","2","legacy","1024","2","48000","-16","experiment","HHHHH","2","even","105329","42664","NA","NA","86102","2708","NA","NA","106452","2714","NA","NA","106556","106956","106447","106556","Flanker","35","18404","37","yes","1024"
"94.7368421053","94.7368421053","494.684210526","494.684210526","black","no","legacy","legacy","legacy","0","congruent","uniform","1","undefined","1","s","37","0","0","0","37","0","37","0","37","0","0","0","37","37","37","37","09/09/18 21:19:43","1500","The main experiment item","yes","F:\","no","mono","no","18","no","white","no","yes","768","legacy","37","37","F:/mc-subject-2.csv","legacy","Jazzy James","3.1.9","0","s","NA","s","NA","NA","s","394","NA","39947","NA","NA","394","2","legacy","1024","2","48000","-16","experiment","SSSSS","2","even","106970","42664","NA","NA","86102","2708","NA","NA","108079","2714","NA","NA","108189","108585","108075","108189","Flanker","36","18798","38","yes","1024"
"94.8717948718","94.8717948718","493.102564103","493.102564103","black","no","legacy","legacy","legacy","0","congruent","uniform","1","undefined","1","h","38","0","0","0","38","0","38","0","38","0","0","0","38","38","38","38","09/09/18 21:19:43","1500","The main experiment item","yes","F:\","no","mono","no","18","no","white","no","yes","768","legacy","38","38","F:/mc-subject-2.csv","legacy","Jazzy James","3.1.9","0","h","NA","s","NA","NA","h","433","NA","39947","NA","NA","433","2","legacy","1024","2","48000","-16","experiment","HHHHH","2","even","108596","42664","NA","NA","86102","2708","NA","NA","109700","2714","NA","NA","109803","110239","109695","109803","Flanker","37","19231","39","yes","1024"
"92.5","92.5","491.05","491.05","black","no","legacy","legacy","legacy","0","congruent","uniform","0","undefined","0","s","39","0","0","0","39","0","39","0","39","0","0","0","39","39","39","39","09/09/18 21:19:43","1500","The main experiment item","yes","F:\","no","mono","no","18","no","white","no","yes","768","legacy","39","39","F:/mc-subject-2.csv","legacy","Jazzy James","3.1.9","0","h","NA","s","NA","NA","h","411","NA","39947","NA","NA","411","2","legacy","1024","2","48000","-16","experiment","SSSSS","2","even","110253","42664","NA","NA","86102","2708","NA","NA","111354","2714","NA","NA","111457","111873","111350","111457","Flanker","37","19642","40","yes","1024"
"92.6829268293","92.6829268293","492.780487805","492.780487805","black","no","legacy","legacy","legacy","0","congruent","uniform","1","undefined","1","h","40","0","0","0","40","0","40","0","40","0","0","0","40","40","40","40","09/09/18 21:19:43","1500","The main experiment item","yes","F:\","no","mono","no","18","no","white","no","yes","768","legacy","40","40","F:/mc-subject-2.csv","legacy","Jazzy James","3.1.9","0","h","NA","s","NA","NA","h","562","NA","39947","NA","NA","562","2","legacy","1024","2","48000","-16","experiment","HHHHH","2","even","112392","42664","NA","NA","111888","2708","NA","NA","113509","2714","NA","NA","113612","114176","113505","113612","Flanker","38","20204","41","yes","1024"
"90.4761904762","90.4761904762","493.285714286","493.285714286","black","no","legacy","legacy","legacy","0","incongruent","uniform","0","undefined","0","h","41","0","0","0","41","0","41","0","41","0","0","0","41","41","41","41","09/09/18 21:19:43","1500","The main experiment item","yes","F:\","no","mono","no","18","no","white","no","yes","768","legacy","41","41","F:/mc-subject-2.csv","legacy","Jazzy James","3.1.9","0","s","NA","s","NA","NA","s","514","NA","39947","NA","NA","514","2","legacy","1024","2","48000","-16","experiment","SSHSS","2","even","114189","42664","NA","NA","111888","2708","NA","NA","115288","2714","NA","NA","115392","115910","115284","115392","Flanker","38","20718","42","yes","1024"
"90.6976744186","90.6976744186","498","498","black","no","legacy","legacy","legacy","0","incongruent","uniform","1","undefined","1","h","42","0","0","0","42","0","42","0","42","0","0","0","42","42","42","42","09/09/18 21:19:43","1500","The main experiment item","yes","F:\","no","mono","no","18","no","white","no","yes","768","legacy","42","42","F:/mc-subject-2.csv","legacy","Jazzy James","3.1.9","0","h","NA","s","NA","NA","h","696","NA","39947","NA","NA","696","2","legacy","1024","2","48000","-16","experiment","SSHSS","2","even","116426","42664","NA","NA","115923","2708","NA","NA","117527","2714","NA","NA","117630","118328","117522","117630","Flanker","39","21414","43","yes","1024"
"90.9090909091","90.9090909091","498.113636364","498.113636364","black","no","legacy","legacy","legacy","0","congruent","uniform","1","undefined","1","h","43","0","0","0","43","0","43","0","43","0","0","0","43","43","43","43","09/09/18 21:19:43","1500","The main experiment item","yes","F:\","no","mono","no","18","no","white","no","yes","768","legacy","43","43","F:/mc-subject-2.csv","legacy","Jazzy James","3.1.9","0","h","NA","s","NA","NA","h","503","NA","39947","NA","NA","503","2","legacy","1024","2","48000","-16","experiment","HHHHH","2","even","118341","42664","NA","NA","115923","2708","NA","NA","119439","2714","NA","NA","119543","120049","119435","119542","Flanker","40","21917","44","yes","1024"
"91.1111111111","91.1111111111","498.844444444","498.844444444","black","no","legacy","legacy","legacy","0","incongruent","uniform","1","undefined","1","h","44","0","0","0","44","0","44","0","44","0","0","0","44","44","44","44","09/09/18 21:19:43","1500","The main experiment item","yes","F:\","no","mono","no","18","no","white","no","yes","768","legacy","44","44","F:/mc-subject-2.csv","legacy","Jazzy James","3.1.9","0","h","NA","s","NA","NA","h","531","NA","39947","NA","NA","531","2","legacy","1024","2","48000","-16","experiment","SSHSS","2","even","120061","42664","NA","NA","115923","2708","NA","NA","121165","2714","NA","NA","121268","121802","121159","121268","Flanker","41","22448","45","yes","1024"
"91.3043478261","91.3043478261","499.695652174","499.695652174","black","no","legacy","legacy","legacy","0","incongruent","uniform","1","undefined","1","s","45","0","0","0","45","0","45","0","45","0","0","0","45","45","45","45","09/09/18 21:19:43","1500","The main experiment item","yes","F:\","no","mono","no","18","no","white","no","yes","768","legacy","45","45","F:/mc-subject-2.csv","legacy","Jazzy James","3.1.9","0","s","NA","s","NA","NA","s","538","NA","39947","NA","NA","538","2","legacy","1024","2","48000","-16","experiment","HHSHH","2","even","121815","42664","NA","NA","115923","2708","NA","NA","122916","2714","NA","NA","123019","123559","122911","123018","Flanker","42","22986","46","yes","1024"
"91.4893617021","91.4893617021","499.808510638","499.808510638","black","no","legacy","legacy","legacy","0","congruent","uniform","1","undefined","1","h","46","0","0","0","46","0","46","0","46","0","0","0","46","46","46","46","09/09/18 21:19:43","1500","The main experiment item","yes","F:\","no","mono","no","18","no","white","no","yes","768","legacy","46","46","F:/mc-subject-2.csv","legacy","Jazzy James","3.1.9","0","h","NA","s","NA","NA","h","505","NA","39947","NA","NA","505","2","legacy","1024","2","48000","-16","experiment","HHHHH","2","even","123571","42664","NA","NA","115923","2708","NA","NA","124663","2714","NA","NA","124765","125273","124659","124765","Flanker","43","23491","47","yes","1024"
"91.6666666667","91.6666666667","500.375","500.375","black","no","legacy","legacy","legacy","0","congruent","uniform","1","undefined","1","h","47","0","0","0","47","0","47","0","47","0","0","0","47","47","47","47","09/09/18 21:19:43","1500","The main experiment item","yes","F:\","no","mono","no","18","no","white","no","yes","768","legacy","47","47","F:/mc-subject-2.csv","legacy","Jazzy James","3.1.9","0","h","NA","s","NA","NA","h","527","NA","39947","NA","NA","527","2","legacy","1024","2","48000","-16","experiment","HHHHH","2","even","125285","42664","NA","NA","115923","2708","NA","NA","126378","2714","NA","NA","126482","127011","126374","126482","Flanker","44","24018","48","yes","1024"
"91.8367346939","91.8367346939","501.408163265","501.408163265","black","no","legacy","legacy","legacy","0","incongruent","uniform","1","undefined","1","s","48","0","0","0","48","0","48","0","48","0","0","0","48","48","48","48","09/09/18 21:19:43","1500","The main experiment item","yes","F:\","no","mono","no","18","no","white","no","yes","768","legacy","48","48","F:/mc-subject-2.csv","legacy","Jazzy James","3.1.9","0","s","NA","s","NA","NA","s","551","NA","39947","NA","NA","551","2","legacy","1024","2","48000","-16","experiment","HHSHH","2","even","127023","42664","NA","NA","115923","2708","NA","NA","128137","2714","NA","NA","128242","128796","128133","128241","Flanker","45","24569","49","yes","1024"
"92","92","501.98","501.98","black","no","legacy","legacy","legacy","0","incongruent","uniform","1","undefined","1","h","49","0","0","0","49","0","49","0","49","0","0","0","49","49","49","49","09/09/18 21:19:43","1500","The main experiment item","yes","F:\","no","mono","no","18","no","white","no","yes","768","legacy","49","49","F:/mc-subject-2.csv","legacy","Jazzy James","3.1.9","0","h","NA","s","NA","NA","h","530","NA","39947","NA","NA","530","2","legacy","1024","2","48000","-16","experiment","SSHSS","2","even","128810","42664","NA","NA","115923","2708","NA","NA","129908","2714","NA","NA","130011","130544","129904","130011","Flanker","46","25099","50","yes","1024"
"92.1568627451","92.1568627451","502.392156863","502.392156863","black","no","legacy","legacy","legacy","0","incongruent","uniform","1","undefined","1","h","50","0","0","0","50","0","50","0","50","0","0","0","50","50","50","50","09/09/18 21:19:43","1500","The main experiment item","yes","F:\","no","mono","no","18","no","white","no","yes","768","legacy","50","50","F:/mc-subject-2.csv","legacy","Jazzy James","3.1.9","0","h","NA","s","NA","NA","h","523","NA","39947","NA","NA","523","2","legacy","1024","2","48000","-16","experiment","SSHSS","2","even","130555","42664","NA","NA","115923","2708","NA","NA","131675","2714","NA","NA","131778","132304","131670","131777","Flanker","47","25622","51","yes","1024"
"92.3076923077","92.3076923077","501.557692308","501.557692308","black","no","legacy","legacy","legacy","0","incongruent","uniform","1","undefined","1","h","51","0","0","0","51","0","51","0","51","0","0","0","51","51","51","51","09/09/18 21:19:43","1500","The main experiment item","yes","F:\","no","mono","no","18","no","white","no","yes","768","legacy","51","51","F:/mc-subject-2.csv","legacy","Jazzy James","3.1.9","0","h","NA","s","NA","NA","h","459","NA","39947","NA","NA","459","2","legacy","1024","2","48000","-16","experiment","SSHSS","2","even","132318","42664","NA","NA","115923","2708","NA","NA","133416","2714","NA","NA","133519","133980","133412","133519","Flanker","48","26081","52","yes","1024"
"92.4528301887","92.4528301887","501.037735849","501.037735849","black","no","legacy","legacy","legacy","0","congruent","uniform","1","undefined","1","s","52","0","0","0","52","0","52","0","52","0","0","0","52","52","52","52","09/09/18 21:19:43","1500","The main experiment item","yes","F:\","no","mono","no","18","no","white","no","yes","768","legacy","52","52","F:/mc-subject-2.csv","legacy","Jazzy James","3.1.9","0","s","NA","s","NA","NA","s","474","NA","39947","NA","NA","474","2","legacy","1024","2","48000","-16","experiment","SSSSS","2","even","133994","42664","NA","NA","115923","2708","NA","NA","135099","2714","NA","NA","135203","135679","135095","135203","Flanker","49","26555","53","yes","1024"
"92.5925925926","92.5925925926","500.037037037","500.037037037","black","no","legacy","legacy","legacy","0","congruent","uniform","1","undefined","1","h","53","0","0","0","53","0","53","0","53","0","0","0","53","53","53","53","09/09/18 21:19:43","1500","The main experiment item","yes","F:\","no","mono","no","18","no","white","no","yes","768","legacy","53","53","F:/mc-subject-2.csv","legacy","Jazzy James","3.1.9","0","h","NA","s","NA","NA","h","447","NA","39947","NA","NA","447","2","legacy","1024","2","48000","-16","experiment","HHHHH","2","even","135696","42664","NA","NA","115923","2708","NA","NA","136802","2714","NA","NA","136905","137354","136797","136905","Flanker","50","27002","54","yes","1024"
"92.7272727273","92.7272727273","500.418181818","500.418181818","black","no","legacy","legacy","legacy","0","congruent","uniform","1","undefined","1","s","54","0","0","0","54","0","54","0","54","0","0","0","54","54","54","54","09/09/18 21:19:43","1500","The main experiment item","yes","F:\","no","mono","no","18","no","white","no","yes","768","legacy","54","54","F:/mc-subject-2.csv","legacy","Jazzy James","3.1.9","0","s","NA","s","NA","NA","s","521","NA","39947","NA","NA","521","2","legacy","1024","2","48000","-16","experiment","SSSSS","2","even","137368","42664","NA","NA","115923","2708","NA","NA","138466","2714","NA","NA","138570","139093","138462","138570","Flanker","51","27523","55","yes","1024"
"92.8571428571","92.8571428571","498.803571429","498.803571429","black","no","legacy","legacy","legacy","0","congruent","uniform","1","undefined","1","s","55","0","0","0","55","0","55","0","55","0","0","0","55","55","55","55","09/09/18 21:19:43","1500","The main experiment item","yes","F:\","no","mono","no","18","no","white","no","yes","768","legacy","55","55","F:/mc-subject-2.csv","legacy","Jazzy James","3.1.9","0","s","NA","s","NA","NA","s","410","NA","39947","NA","NA","410","2","legacy","1024","2","48000","-16","experiment","SSSSS","2","even","139106","42664","NA","NA","115923","2708","NA","NA","140205","2714","NA","NA","140309","140722","140200","140309","Flanker","52","27933","56","yes","1024"
"92.9824561404","92.9824561404","497.01754386","497.01754386","black","no","legacy","legacy","legacy","0","congruent","uniform","1","undefined","1","h","56","0","0","0","56","0","56","0","56","0","0","0","56","56","56","56","09/09/18 21:19:43","1500","The main experiment item","yes","F:\","no","mono","no","18","no","white","no","yes","768","legacy","56","56","F:/mc-subject-2.csv","legacy","Jazzy James","3.1.9","0","h","NA","s","NA","NA","h","397","NA","39947","NA","NA","397","2","legacy","1024","2","48000","-16","experiment","HHHHH","2","even","140735","42664","NA","NA","115923","2708","NA","NA","141852","2714","NA","NA","141955","142354","141847","141955","Flanker","53","28330","57","yes","1024"
"93.1034482759","93.1034482759","496.465517241","496.465517241","black","no","legacy","legacy","legacy","0","incongruent","uniform","1","undefined","1","s","57","0","0","0","57","0","57","0","57","0","0","0","57","57","57","57","09/09/18 21:19:43","1500","The main experiment item","yes","F:\","no","mono","no","18","no","white","no","yes","768","legacy","57","57","F:/mc-subject-2.csv","legacy","Jazzy James","3.1.9","0","s","NA","s","NA","NA","s","465","NA","39947","NA","NA","465","2","legacy","1024","2","48000","-16","experiment","HHSHH","2","even","142366","42664","NA","NA","115923","2708","NA","NA","143472","2714","NA","NA","143575","144043","143468","143575","Flanker","54","28795","58","yes","1024"
"93.2203389831","93.2203389831","495.440677966","495.440677966","black","no","legacy","legacy","legacy","0","congruent","uniform","1","undefined","1","s","58","0","0","0","58","0","58","0","58","0","0","0","58","58","58","58","09/09/18 21:19:43","1500","The main experiment item","yes","F:\","no","mono","no","18","no","white","no","yes","768","legacy","58","58","F:/mc-subject-2.csv","legacy","Jazzy James","3.1.9","0","s","NA","s","NA","NA","s","436","NA","39947","NA","NA","436","2","legacy","1024","2","48000","-16","experiment","SSSSS","2","even","144056","42664","NA","NA","115923","2708","NA","NA","145154","2714","NA","NA","145257","145696","145150","145257","Flanker","55","29231","59","yes","1024"
"93.3333333333","93.3333333333","494.95","494.95","black","no","legacy","legacy","legacy","0","incongruent","uniform","1","undefined","1","h","59","0","0","0","59","0","59","0","59","0","0","0","59","59","59","59","09/09/18 21:19:43","1500","The main experiment item","yes","F:\","no","mono","no","18","no","white","no","yes","768","legacy","59","59","F:/mc-subject-2.csv","legacy","Jazzy James","3.1.9","0","h","NA","s","NA","NA","h","466","NA","39947","NA","NA","466","2","legacy","1024","2","48000","-16","experiment","SSHSS","2","even","145709","42664","NA","NA","115923","2708","NA","NA","146819","2714","NA","NA","146922","147391","146815","146922","Flanker","56","29697","60","yes","1024"
"93.4426229508","93.4426229508","495.721311475","495.721311475","black","no","legacy","legacy","legacy","0","incongruent","uniform","1","undefined","1","h","60","0","0","0","60","0","60","0","60","0","0","0","60","60","60","60","09/09/18 21:19:43","1500","The main experiment item","yes","F:\","no","mono","no","18","no","white","no","yes","768","legacy","60","60","F:/mc-subject-2.csv","legacy","Jazzy James","3.1.9","0","h","NA","s","NA","NA","h","542","NA","39947","NA","NA","542","2","legacy","1024","2","48000","-16","experiment","SSHSS","2","even","147405","42664","NA","NA","115923","2708","NA","NA","148511","2714","NA","NA","148614","149159","148507","148614","Flanker","57","30239","61","yes","1024"
"93.5483870968","93.5483870968","495.370967742","495.370967742","black","no","legacy","legacy","legacy","0","congruent","uniform","1","undefined","1","s","61","0","0","0","61","0","61","0","61","0","0","0","61","61","61","61","09/09/18 21:19:43","1500","The main experiment item","yes","F:\","no","mono","no","18","no","white","no","yes","768","legacy","61","61","F:/mc-subject-2.csv","legacy","Jazzy James","3.1.9","0","s","NA","s","NA","NA","s","474","NA","39947","NA","NA","474","2","legacy","1024","2","48000","-16","experiment","SSSSS","2","even","149172","42664","NA","NA","115923","2708","NA","NA","150274","2714","NA","NA","150377","150854","150270","150377","Flanker","58","30713","62","yes","1024"
"93.6507936508","93.6507936508","495.603174603","495.603174603","black","no","legacy","legacy","legacy","0","incongruent","uniform","1","undefined","1","h","62","0","0","0","62","0","62","0","62","0","0","0","62","62","62","62","09/09/18 21:19:43","1500","The main experiment item","yes","F:\","no","mono","no","18","no","white","no","yes","768","legacy","62","62","F:/mc-subject-2.csv","legacy","Jazzy James","3.1.9","0","h","NA","s","NA","NA","h","510","NA","39947","NA","NA","510","2","legacy","1024","2","48000","-16","experiment","SSHSS","2","even","150869","42664","NA","NA","115923","2708","NA","NA","151961","2714","NA","NA","152065","152578","151957","152064","Flanker","59","31223","63","yes","1024"
"93.75","93.75","495.46875","495.46875","black","no","legacy","legacy","legacy","0","incongruent","uniform","1","undefined","1","s","63","0","0","0","63","0","63","0","63","0","0","0","63","63","63","63","09/09/18 21:19:43","1500","The main experiment item","yes","F:\","no","mono","no","18","no","white","no","yes","768","legacy","63","63","F:/mc-subject-2.csv","legacy","Jazzy James","3.1.9","0","s","NA","s","NA","NA","s","487","NA","39947","NA","NA","487","2","legacy","1024","2","48000","-16","experiment","HHSHH","2","even","152591","42664","NA","NA","115923","2708","NA","NA","153721","2714","NA","NA","153824","154315","153716","153824","Flanker","60","31710","64","yes","1024"
"93.8461538462","93.8461538462","494.353846154","494.353846154","black","no","legacy","legacy","legacy","0","congruent","uniform","1","undefined","1","h","64","0","0","0","64","0","64","0","64","0","0","0","64","64","64","64","09/09/18 21:19:43","1500","The main experiment item","yes","F:\","no","mono","no","18","no","white","no","yes","768","legacy","64","64","F:/mc-subject-2.csv","legacy","Jazzy James","3.1.9","0","h","NA","s","NA","NA","h","423","NA","39947","NA","NA","423","2","legacy","1024","2","48000","-16","experiment","HHHHH","2","even","154327","42664","NA","NA","115923","2708","NA","NA","155428","2714","NA","NA","155531","155957","155423","155531","Flanker","61","32133","65","yes","1024"
"93.9393939394","93.9393939394","492.939393939","492.939393939","black","no","legacy","legacy","legacy","0","congruent","uniform","1","undefined","1","s","65","0","0","0","65","0","65","0","65","0","0","0","65","65","65","65","09/09/18 21:19:43","1500","The main experiment item","yes","F:\","no","mono","no","18","no","white","no","yes","768","legacy","65","65","F:/mc-subject-2.csv","legacy","Jazzy James","3.1.9","0","s","NA","s","NA","NA","s","401","NA","39947","NA","NA","401","2","legacy","1024","2","48000","-16","experiment","SSSSS","2","even","155968","42664","NA","NA","115923","2708","NA","NA","157075","2714","NA","NA","157178","157582","157070","157178","Flanker","62","32534","66","yes","1024"
"94.0298507463","94.0298507463","491.402985075","491.402985075","black","no","legacy","legacy","legacy","0","incongruent","uniform","1","undefined","1","h","66","0","0","0","66","0","66","0","66","0","0","0","66","66","66","66","09/09/18 21:19:43","1500","The main experiment item","yes","F:\","no","mono","no","18","no","white","no","yes","768","legacy","66","66","F:/mc-subject-2.csv","legacy","Jazzy James","3.1.9","0","h","NA","s","NA","NA","h","390","NA","39947","NA","NA","390","2","legacy","1024","2","48000","-16","experiment","SSHSS","2","even","157595","42664","NA","NA","115923","2708","NA","NA","158699","2714","NA","NA","158802","159195","158695","158802","Flanker","63","32924","67","yes","1024"
"94.1176470588","94.1176470588","491.602941176","491.602941176","black","no","legacy","legacy","legacy","0","congruent","uniform","1","undefined","1","h","67","0","0","0","67","0","67","0","67","0","0","0","67","67","67","67","09/09/18 21:19:43","1500","The main experiment item","yes","F:\","no","mono","no","18","no","white","no","yes","768","legacy","67","67","F:/mc-subject-2.csv","legacy","Jazzy James","3.1.9","0","h","NA","s","NA","NA","h","505","NA","39947","NA","NA","505","2","legacy","1024","2","48000","-16","experiment","HHHHH","2","even","159205","42664","NA","NA","115923","2708","NA","NA","160309","2714","NA","NA","160412","160921","160305","160412","Flanker","64","33429","68","yes","1024"
"94.2028985507","94.2028985507","490.47826087","490.47826087","black","no","legacy","legacy","legacy","0","incongruent","uniform","1","undefined","1","h","68","0","0","0","68","0","68","0","68","0","0","0","68","68","68","68","09/09/18 21:19:43","1500","The main experiment item","yes","F:\","no","mono","no","18","no","white","no","yes","768","legacy","68","68","F:/mc-subject-2.csv","legacy","Jazzy James","3.1.9","0","h","NA","s","NA","NA","h","414","NA","39947","NA","NA","414","2","legacy","1024","2","48000","-16","experiment","SSHSS","2","even","160933","42664","NA","NA","115923","2708","NA","NA","162032","2714","NA","NA","162135","162552","162028","162135","Flanker","65","33843","69","yes","1024"
"94.2857142857","94.2857142857","490.571428571","490.571428571","black","no","legacy","legacy","legacy","0","incongruent","uniform","1","undefined","1","s","69","0","0","0","69","0","69","0","69","0","0","0","69","69","69","69","09/09/18 21:19:43","1500","The main experiment item","yes","F:\","no","mono","no","18","no","white","no","yes","768","legacy","69","69","F:/mc-subject-2.csv","legacy","Jazzy James","3.1.9","0","s","NA","s","NA","NA","s","497","NA","39947","NA","NA","497","2","legacy","1024","2","48000","-16","experiment","HHSHH","2","even","162567","42664","NA","NA","115923","2708","NA","NA","163666","2714","NA","NA","163769","164269","163662","163768","Flanker","66","34340","70","yes","1024"
"94.3661971831","94.3661971831","489.85915493","489.85915493","black","no","legacy","legacy","legacy","0","congruent","uniform","1","undefined","1","s","70","0","0","0","70","0","70","0","70","0","0","0","70","70","70","70","09/09/18 21:19:43","1500","The main experiment item","yes","F:\","no","mono","no","18","no","white","no","yes","768","legacy","70","70","F:/mc-subject-2.csv","legacy","Jazzy James","3.1.9","0","s","NA","s","NA","NA","s","440","NA","39947","NA","NA","440","2","legacy","1024","2","48000","-16","experiment","SSSSS","2","even","164284","42664","NA","NA","115923","2708","NA","NA","165383","2714","NA","NA","165486","165929","165378","165486","Flanker","67","34780","71","yes","1024"
"94.4444444444","94.4444444444","488.513888889","488.513888889","black","no","legacy","legacy","legacy","0","congruent","uniform","1","undefined","1","h","71","0","0","0","71","0","71","0","71","0","0","0","71","71","71","71","09/09/18 21:19:43","1500","The main experiment item","yes","F:\","no","mono","no","18","no","white","no","yes","768","legacy","71","71","F:/mc-subject-2.csv","legacy","Jazzy James","3.1.9","0","h","NA","s","NA","NA","h","393","NA","39947","NA","NA","393","2","legacy","1024","2","48000","-16","experiment","HHHHH","2","even","165940","42664","NA","NA","115923","2708","NA","NA","167043","2714","NA","NA","167147","167545","167039","167147","Flanker","68","35173","72","yes","1024"
"94.5205479452","94.5205479452","487.136986301","487.136986301","black","no","legacy","legacy","legacy","0","congruent","uniform","1","undefined","1","s","72","0","0","0","72","0","72","0","72","0","0","0","72","72","72","72","09/09/18 21:19:43","1500","The main experiment item","yes","F:\","no","mono","no","18","no","white","no","yes","768","legacy","72","72","F:/mc-subject-2.csv","legacy","Jazzy James","3.1.9","0","s","NA","s","NA","NA","s","388","NA","39947","NA","NA","388","2","legacy","1024","2","48000","-16","experiment","SSSSS","2","even","167557","42664","NA","NA","115923","2708","NA","NA","168656","2714","NA","NA","168759","169150","168651","168759","Flanker","69","35561","73","yes","1024"
"94.5945945946","94.5945945946","486.702702703","486.702702703","black","no","legacy","legacy","legacy","0","incongruent","uniform","1","undefined","1","h","73","0","0","0","73","0","73","0","73","0","0","0","73","73","73","73","09/09/18 21:19:43","1500","The main experiment item","yes","F:\","no","mono","no","18","no","white","no","yes","768","legacy","73","73","F:/mc-subject-2.csv","legacy","Jazzy James","3.1.9","0","h","NA","s","NA","NA","h","455","NA","39947","NA","NA","455","2","legacy","1024","2","48000","-16","experiment","SSHSS","2","even","169162","42664","NA","NA","115923","2708","NA","NA","170265","2714","NA","NA","170368","170827","170260","170368","Flanker","70","36016","74","yes","1024"
"94.6666666667","94.6666666667","487.573333333","487.573333333","black","no","legacy","legacy","legacy","0","incongruent","uniform","1","undefined","1","s","74","0","0","0","74","0","74","0","74","0","0","0","74","74","74","74","09/09/18 21:19:43","1500","The main experiment item","yes","F:\","no","mono","no","18","no","white","no","yes","768","legacy","74","74","F:/mc-subject-2.csv","legacy","Jazzy James","3.1.9","0","s","NA","s","NA","NA","s","552","NA","39947","NA","NA","552","2","legacy","1024","2","48000","-16","experiment","HHSHH","2","even","170840","42664","NA","NA","115923","2708","NA","NA","171940","2714","NA","NA","172043","172598","171936","172043","Flanker","71","36568","75","yes","1024"
"94.7368421053","94.7368421053","487.184210526","487.184210526","black","no","legacy","legacy","legacy","0","incongruent","uniform","1","undefined","1","s","75","0","0","0","75","0","75","0","75","0","0","0","75","75","75","75","09/09/18 21:19:43","1500","The main experiment item","yes","F:\","no","mono","no","18","no","white","no","yes","768","legacy","75","75","F:/mc-subject-2.csv","legacy","Jazzy James","3.1.9","0","s","NA","s","NA","NA","s","458","NA","39947","NA","NA","458","2","legacy","1024","2","48000","-16","experiment","HHSHH","2","even","172613","42664","NA","NA","115923","2708","NA","NA","173714","2714","NA","NA","173819","174280","173710","173819","Flanker","72","37026","76","yes","1024"
"94.8051948052","94.8051948052","486.974025974","486.974025974","black","no","legacy","legacy","legacy","0","congruent","uniform","1","undefined","1","h","76","0","0","0","76","0","76","0","76","0","0","0","76","76","76","76","09/09/18 21:19:43","1500","The main experiment item","yes","F:\","no","mono","no","18","no","white","no","yes","768","legacy","76","76","F:/mc-subject-2.csv","legacy","Jazzy James","3.1.9","0","h","NA","s","NA","NA","h","471","NA","39947","NA","NA","471","2","legacy","1024","2","48000","-16","experiment","HHHHH","2","even","174291","42664","NA","NA","115923","2708","NA","NA","175388","2714","NA","NA","175491","175965","175384","175491","Flanker","73","37497","77","yes","1024"
"94.8717948718","94.8717948718","486.666666667","486.666666667","black","no","legacy","legacy","legacy","0","congruent","uniform","1","undefined","1","h","77","0","0","0","77","0","77","0","77","0","0","0","77","77","77","77","09/09/18 21:19:43","1500","The main experiment item","yes","F:\","no","mono","no","18","no","white","no","yes","768","legacy","77","77","F:/mc-subject-2.csv","legacy","Jazzy James","3.1.9","0","h","NA","s","NA","NA","h","463","NA","39947","NA","NA","463","2","legacy","1024","2","48000","-16","experiment","HHHHH","2","even","175979","42664","NA","NA","115923","2708","NA","NA","177089","2714","NA","NA","177194","177660","177084","177194","Flanker","74","37960","78","yes","1024"
"94.9367088608","94.9367088608","485.506329114","485.506329114","black","no","legacy","legacy","legacy","0","congruent","uniform","1","undefined","1","h","78","0","0","0","78","0","78","0","78","0","0","0","78","78","78","78","09/09/18 21:19:43","1500","The main experiment item","yes","F:\","no","mono","no","18","no","white","no","yes","768","legacy","78","78","F:/mc-subject-2.csv","legacy","Jazzy James","3.1.9","0","h","NA","s","NA","NA","h","395","NA","39947","NA","NA","395","2","legacy","1024","2","48000","-16","experiment","HHHHH","2","even","177674","42664","NA","NA","115923","2708","NA","NA","178777","2714","NA","NA","178880","179278","178772","178880","Flanker","75","38355","79","yes","1024"
"95","95","484.8125","484.8125","black","no","legacy","legacy","legacy","0","congruent","uniform","1","undefined","1","h","79","0","0","0","79","0","79","0","79","0","0","0","79","79","79","79","09/09/18 21:19:43","1500","The main experiment item","yes","F:\","no","mono","no","18","no","white","no","yes","768","legacy","79","79","F:/mc-subject-2.csv","legacy","Jazzy James","3.1.9","0","h","NA","s","NA","NA","h","430","NA","39947","NA","NA","430","2","legacy","1024","2","48000","-16","experiment","HHHHH","2","even","179292","42664","NA","NA","115923","2708","NA","NA","180391","2714","NA","NA","180495","180928","180386","180495","Flanker","76","38785","80","yes","1024"
"95.0617283951","95.0617283951","485.111111111","485.111111111","black","no","legacy","legacy","legacy","0","congruent","uniform","1","undefined","1","h","80","0","0","0","80","0","80","0","80","0","0","0","80","80","80","80","09/09/18 21:19:43","600","The main experiment item","yes","F:\","no","mono","no","18","no","white","no","yes","768","legacy","0","79","F:/mc-subject-2.csv","legacy","Jazzy James","3.1.9","0","h","NA","s","h","NA","h","509","NA","39947","101641","NA","509","2","legacy","1024","2","48000","-16","experiment","HHHHH","2","even","180939","42664","283615","NA","115923","2708","NA","NA","283717","2714","181969","NA","283821","284334","283714","283821","Flanker","77","39294","81","yes","1024"
"95.1219512195","95.1219512195","484.5","484.5","black","no","legacy","legacy","legacy","0","congruent","uniform","1","undefined","1","h","81","0","0","0","81","0","81","0","81","0","0","0","81","81","81","81","09/09/18 21:19:43","600","The main experiment item","yes","F:\","no","mono","no","18","no","white","no","yes","768","legacy","1","79","F:/mc-subject-2.csv","legacy","Jazzy James","3.1.9","0","h","NA","s","h","NA","h","435","NA","39947","101641","NA","435","2","legacy","1024","2","48000","-16","experiment","HHHHH","2","even","284350","42664","283615","NA","115923","2708","NA","NA","285450","2714","181969","NA","285554","285993","285446","285554","Flanker","78","39729","82","yes","1024"
"93.9759036145","93.9759036145","483.168674699","483.168674699","black","no","legacy","legacy","legacy","0","incongruent","uniform","0","undefined","0","h","82","0","0","0","82","0","82","0","82","0","0","0","82","82","82","82","09/09/18 21:19:43","600","The main experiment item","yes","F:\","no","mono","no","18","no","white","no","yes","768","legacy","2","79","F:/mc-subject-2.csv","legacy","Jazzy James","3.1.9","0","s","NA","s","h","NA","s","374","NA","39947","101641","NA","374","2","legacy","1024","2","48000","-16","experiment","SSHSS","2","even","286004","42664","283615","NA","115923","2708","NA","NA","287110","2714","181969","NA","287213","287590","287105","287213","Flanker","78","40103","83","yes","1024"
"94.0476190476","94.0476190476","482.30952381","482.30952381","black","no","legacy","legacy","legacy","0","incongruent","uniform","1","undefined","1","s","83","0","0","0","83","0","83","0","83","0","0","0","83","83","83","83","09/09/18 21:19:43","600","The main experiment item","yes","F:\","no","mono","no","18","no","white","no","yes","768","legacy","3","79","F:/mc-subject-2.csv","legacy","Jazzy James","3.1.9","0","s","NA","s","h","NA","s","411","NA","39947","101641","NA","411","2","legacy","1024","2","48000","-16","experiment","HHSHH","2","even","288106","42664","283615","NA","287603","2708","NA","NA","289201","2714","181969","NA","289304","289719","289197","289304","Flanker","79","40514","84","yes","1024"
"94.1176470588","94.1176470588","482.023529412","482.023529412","black","no","legacy","legacy","legacy","0","congruent","uniform","1","undefined","1","h","84","0","0","0","84","0","84","0","84","0","0","0","84","84","84","84","09/09/18 21:19:43","600","The main experiment item","yes","F:\","no","mono","no","18","no","white","no","yes","768","legacy","4","79","F:/mc-subject-2.csv","legacy","Jazzy James","3.1.9","0","h","NA","s","h","NA","h","458","NA","39947","101641","NA","458","2","legacy","1024","2","48000","-16","experiment","HHHHH","2","even","289731","42664","283615","NA","287603","2708","NA","NA","290841","2714","181969","NA","290944","291405","290836","290944","Flanker","80","40972","85","yes","1024"
"94.1860465116","94.1860465116","481.255813953","481.255813953","black","no","legacy","legacy","legacy","0","incongruent","uniform","1","undefined","1","s","85","0","0","0","85","0","85","0","85","0","0","0","85","85","85","85","09/09/18 21:19:43","600","The main experiment item","yes","F:\","no","mono","no","18","no","white","no","yes","768","legacy","5","79","F:/mc-subject-2.csv","legacy","Jazzy James","3.1.9","0","s","NA","s","h","NA","s","416","NA","39947","101641","NA","416","2","legacy","1024","2","48000","-16","experiment","HHSHH","2","even","291419","42664","283615","NA","287603","2708","NA","NA","292512","2714","181969","NA","292615","293035","292508","292615","Flanker","81","41388","86","yes","1024"
"94.2528735632","94.2528735632","480.08045977","480.08045977","black","no","legacy","legacy","legacy","0","congruent","uniform","1","undefined","1","s","86","0","0","0","86","0","86","0","86","0","0","0","86","86","86","86","09/09/18 21:19:43","600","The main experiment item","yes","F:\","no","mono","no","18","no","white","no","yes","768","legacy","6","79","F:/mc-subject-2.csv","legacy","Jazzy James","3.1.9","0","s","NA","s","h","NA","s","379","NA","39947","101641","NA","379","2","legacy","1024","2","48000","-16","experiment","SSSSS","2","even","293049","42664","283615","NA","287603","2708","NA","NA","294144","2714","181969","NA","294248","294630","294140","294248","Flanker","82","41767","87","yes","1024"
"94.3181818182","94.3181818182","478.602272727","478.602272727","black","no","legacy","legacy","legacy","0","congruent","uniform","1","undefined","1","h","87","0","0","0","87","0","87","0","87","0","0","0","87","87","87","87","09/09/18 21:19:43","600","The main experiment item","yes","F:\","no","mono","no","18","no","white","no","yes","768","legacy","7","79","F:/mc-subject-2.csv","legacy","Jazzy James","3.1.9","0","h","NA","s","h","NA","h","350","NA","39947","101641","NA","350","2","legacy","1024","2","48000","-16","experiment","HHHHH","2","even","294643","42664","283615","NA","287603","2708","NA","NA","295739","2714","181969","NA","295842","296197","295735","295841","Flanker","83","42117","88","yes","1024"
"93.2584269663","93.2584269663","477.348314607","477.348314607","black","no","legacy","legacy","legacy","0","incongruent","uniform","0","undefined","0","h","88","0","0","0","88","0","88","0","88","0","0","0","88","88","88","88","09/09/18 21:19:43","600","The main experiment item","yes","F:\","no","mono","no","18","no","white","no","yes","768","legacy","8","79","F:/mc-subject-2.csv","legacy","Jazzy James","3.1.9","0","s","NA","s","h","NA","s","367","NA","39947","101641","NA","367","2","legacy","1024","2","48000","-16","experiment","SSHSS","2","even","296208","42664","283615","NA","287603","2708","NA","NA","297301","2714","181969","NA","297405","297775","297297","297405","Flanker","83","42484","89","yes","1024"
"93.3333333333","93.3333333333","477.422222222","477.422222222","black","no","legacy","legacy","legacy","0","congruent","uniform","1","undefined","1","s","89","0","0","0","89","0","89","0","89","0","0","0","89","89","89","89","09/09/18 21:19:43","600","The main experiment item","yes","F:\","no","mono","no","18","no","white","no","yes","768","legacy","9","79","F:/mc-subject-2.csv","legacy","Jazzy James","3.1.9","0","s","NA","s","h","NA","s","484","NA","39947","101641","NA","484","2","legacy","1024","2","48000","-16","experiment","SSSSS","2","even","298290","42664","283615","NA","297787","2708","NA","NA","299386","2714","181969","NA","299490","299978","299382","299490","Flanker","84","42968","90","yes","1024"
"93.4065934066","93.4065934066","476.164835165","476.164835165","black","no","legacy","legacy","legacy","0","incongruent","uniform","1","undefined","1","h","90","0","0","0","90","0","90","0","90","0","0","0","90","90","90","90","09/09/18 21:19:43","600","The main experiment item","yes","F:\","no","mono","no","18","no","white","no","yes","768","legacy","10","79","F:/mc-subject-2.csv","legacy","Jazzy James","3.1.9","0","h","NA","s","h","NA","h","363","NA","39947","101641","NA","363","2","legacy","1024","2","48000","-16","experiment","SSHSS","2","even","299989","42664","283615","NA","297787","2708","NA","NA","301093","2714","181969","NA","301196","301563","301089","301196","Flanker","85","43331","91","yes","1024"
"93.4782608696","93.4782608696","474.869565217","474.869565217","black","no","legacy","legacy","legacy","0","congruent","uniform","1","undefined","1","s","91","0","0","0","91","0","91","0","91","0","0","0","91","91","91","91","09/09/18 21:19:43","600","The main experiment item","yes","F:\","no","mono","no","18","no","white","no","yes","768","legacy","11","79","F:/mc-subject-2.csv","legacy","Jazzy James","3.1.9","0","s","NA","s","h","NA","s","357","NA","39947","101641","NA","357","2","legacy","1024","2","48000","-16","experiment","SSSSS","2","even","301576","42664","283615","NA","297787","2708","NA","NA","302672","2714","181969","NA","302775","303136","302668","302775","Flanker","86","43688","92","yes","1024"
"93.5483870968","93.5483870968","473.569892473","473.569892473","black","no","legacy","legacy","legacy","0","congruent","uniform","1","undefined","1","s","92","0","0","0","92","0","92","0","92","0","0","0","92","92","92","92","09/09/18 21:19:43","600","The main experiment item","yes","F:\","no","mono","no","18","no","white","no","yes","768","legacy","12","79","F:/mc-subject-2.csv","legacy","Jazzy James","3.1.9","0","s","NA","s","h","NA","s","354","NA","39947","101641","NA","354","2","legacy","1024","2","48000","-16","experiment","SSSSS","2","even","303147","42664","283615","NA","297787","2708","NA","NA","304248","2714","181969","NA","304351","304709","304243","304351","Flanker","87","44042","93","yes","1024"
"93.6170212766","93.6170212766","472.319148936","472.319148936","black","no","legacy","legacy","legacy","0","congruent","uniform","1","undefined","1","h","93","0","0","0","93","0","93","0","93","0","0","0","93","93","93","93","09/09/18 21:19:43","600","The main experiment item","yes","F:\","no","mono","no","18","no","white","no","yes","768","legacy","13","79","F:/mc-subject-2.csv","legacy","Jazzy James","3.1.9","0","h","NA","s","h","NA","h","356","NA","39947","101641","NA","356","2","legacy","1024","2","48000","-16","experiment","HHHHH","2","even","304721","42664","283615","NA","297787","2708","NA","NA","305822","2714","181969","NA","305925","306285","305818","305925","Flanker","88","44398","94","yes","1024"
"93.6842105263","93.6842105263","470.915789474","470.915789474","black","no","legacy","legacy","legacy","0","congruent","uniform","1","undefined","1","h","94","0","0","0","94","0","94","0","94","0","0","0","94","94","94","94","09/09/18 21:19:43","600","The main experiment item","yes","F:\","no","mono","no","18","no","white","no","yes","768","legacy","14","79","F:/mc-subject-2.csv","legacy","Jazzy James","3.1.9","0","h","NA","s","h","NA","h","339","NA","39947","101641","NA","339","2","legacy","1024","2","48000","-16","experiment","HHHHH","2","even","306296","42664","283615","NA","297787","2708","NA","NA","307396","2714","181969","NA","307500","307843","307391","307500","Flanker","89","44737","95","yes","1024"
"93.75","93.75","470.510416667","470.510416667","black","no","legacy","legacy","legacy","0","incongruent","uniform","1","undefined","1","s","95","0","0","0","95","0","95","0","95","0","0","0","95","95","95","95","09/09/18 21:19:43","600","The main experiment item","yes","F:\","no","mono","no","18","no","white","no","yes","768","legacy","15","79","F:/mc-subject-2.csv","legacy","Jazzy James","3.1.9","0","s","NA","s","h","NA","s","432","NA","39947","101641","NA","432","2","legacy","1024","2","48000","-16","experiment","HHSHH","2","even","307855","42664","283615","NA","297787","2708","NA","NA","308955","2714","181969","NA","309058","309493","308951","309058","Flanker","90","45169","96","yes","1024"
"93.8144329897","93.8144329897","469.329896907","469.329896907","black","no","legacy","legacy","legacy","0","congruent","uniform","1","undefined","1","h","96","0","0","0","96","0","96","0","96","0","0","0","96","96","96","96","09/09/18 21:19:43","600","The main experiment item","yes","F:\","no","mono","no","18","no","white","no","yes","768","legacy","16","79","F:/mc-subject-2.csv","legacy","Jazzy James","3.1.9","0","h","NA","s","h","NA","h","356","NA","39947","101641","NA","356","2","legacy","1024","2","48000","-16","experiment","HHHHH","2","even","309504","42664","283615","NA","297787","2708","NA","NA","310603","2714","181969","NA","310706","311066","310599","310706","Flanker","91","45525","97","yes","1024"
"92.8571428571","92.8571428571","467.806122449","467.806122449","black","no","legacy","legacy","legacy","0","incongruent","uniform","0","undefined","0","s","97","0","0","0","97","0","97","0","97","0","0","0","97","97","97","97","09/09/18 21:19:43","600","The main experiment item","yes","F:\","no","mono","no","18","no","white","no","yes","768","legacy","17","79","F:/mc-subject-2.csv","legacy","Jazzy James","3.1.9","0","h","NA","s","h","NA","h","320","NA","39947","101641","NA","320","2","legacy","1024","2","48000","-16","experiment","HHSHH","2","even","311079","42664","283615","NA","297787","2708","NA","NA","312177","2714","181969","NA","312282","312606","312173","312281","Flanker","91","45845","98","yes","1024"
"92.9292929293","92.9292929293","467.252525253","467.252525253","black","no","legacy","legacy","legacy","0","incongruent","uniform","1","undefined","1","h","98","0","0","0","98","0","98","0","98","0","0","0","98","98","98","98","09/09/18 21:19:43","600","The main experiment item","yes","F:\","no","mono","no","18","no","white","no","yes","768","legacy","18","79","F:/mc-subject-2.csv","legacy","Jazzy James","3.1.9","0","h","NA","s","h","NA","h","413","NA","39947","101641","NA","413","2","legacy","1024","2","48000","-16","experiment","SSHSS","2","even","313122","42664","283615","NA","312620","2708","NA","NA","314216","2714","181969","NA","314319","314736","314212","314319","Flanker","92","46258","99","yes","1024"
"93","93","467.36","467.36","black","no","legacy","legacy","legacy","0","incongruent","uniform","1","undefined","1","h","99","0","0","0","99","0","99","0","99","0","0","0","99","99","99","99","09/09/18 21:19:43","600","The main experiment item","yes","F:\","no","mono","no","18","no","white","no","yes","768","legacy","19","79","F:/mc-subject-2.csv","legacy","Jazzy James","3.1.9","0","h","NA","s","h","NA","h","478","NA","39947","101641","NA","478","2","legacy","1024","2","48000","-16","experiment","SSHSS","2","even","314747","42664","283615","NA","312620","2708","NA","NA","315844","2714","181969","NA","315948","316433","315840","315948","Flanker","93","46736","100","yes","1024"
"93.0693069307","93.0693069307","466.683168317","466.683168317","black","no","legacy","legacy","legacy","0","congruent","uniform","1","undefined","1","s","100","0","0","0","100","0","100","0","100","0","0","0","100","100","100","100","09/09/18 21:19:43","600","The main experiment item","yes","F:\","no","mono","no","18","no","white","no","yes","768","legacy","20","79","F:/mc-subject-2.csv","legacy","Jazzy James","3.1.9","0","s","NA","s","h","NA","s","399","NA","39947","101641","NA","399","2","legacy","1024","2","48000","-16","experiment","SSSSS","2","even","316460","42664","283615","NA","312620","2708","NA","NA","317563","2714","181969","NA","317667","318070","317559","317667","Flanker","94","47135","101","yes","1024"
"93.137254902","93.137254902","465.617647059","465.617647059","black","no","legacy","legacy","legacy","0","congruent","uniform","1","undefined","1","s","101","0","0","0","101","0","101","0","101","0","0","0","101","101","101","101","09/09/18 21:19:43","600","The main experiment item","yes","F:\","no","mono","no","18","no","white","no","yes","768","legacy","21","79","F:/mc-subject-2.csv","legacy","Jazzy James","3.1.9","0","s","NA","s","h","NA","s","358","NA","39947","101641","NA","358","2","legacy","1024","2","48000","-16","experiment","SSSSS","2","even","318084","42664","283615","NA","312620","2708","NA","NA","319187","2714","181969","NA","319292","319654","319183","319291","Flanker","95","47493","102","yes","1024"
"93.2038834951","93.2038834951","464.572815534","464.572815534","black","no","legacy","legacy","legacy","0","incongruent","uniform","1","undefined","1","h","102","0","0","0","102","0","102","0","102","0","0","0","102","102","102","102","09/09/18 21:19:43","600","The main experiment item","yes","F:\","no","mono","no","18","no","white","no","yes","768","legacy","22","79","F:/mc-subject-2.csv","legacy","Jazzy James","3.1.9","0","h","NA","s","h","NA","h","358","NA","39947","101641","NA","358","2","legacy","1024","2","48000","-16","experiment","SSHSS","2","even","319666","42664","283615","NA","312620","2708","NA","NA","320771","2714","181969","NA","320875","321237","320766","320875","Flanker","96","47851","103","yes","1024"
"93.2692307692","93.2692307692","463.278846154","463.278846154","black","no","legacy","legacy","legacy","0","congruent","uniform","1","undefined","1","s","103","0","0","0","103","0","103","0","103","0","0","0","103","103","103","103","09/09/18 21:19:43","600","The main experiment item","yes","F:\","no","mono","no","18","no","white","no","yes","768","legacy","23","79","F:/mc-subject-2.csv","legacy","Jazzy James","3.1.9","0","s","NA","s","h","NA","s","330","NA","39947","101641","NA","330","2","legacy","1024","2","48000","-16","experiment","SSSSS","2","even","321248","42664","283615","NA","312620","2708","NA","NA","322355","2714","181969","NA","322458","322793","322350","322458","Flanker","97","48181","104","yes","1024"
"93.3333333333","93.3333333333","463.371428571","463.371428571","black","no","legacy","legacy","legacy","0","incongruent","uniform","1","undefined","1","s","104","0","0","0","104","0","104","0","104","0","0","0","104","104","104","104","09/09/18 21:19:43","600","The main experiment item","yes","F:\","no","mono","no","18","no","white","no","yes","768","legacy","24","79","F:/mc-subject-2.csv","legacy","Jazzy James","3.1.9","0","s","NA","s","h","NA","s","473","NA","39947","101641","NA","473","2","legacy","1024","2","48000","-16","experiment","HHSHH","2","even","322806","42664","283615","NA","312620","2708","NA","NA","323908","2714","181969","NA","324012","324489","323903","324012","Flanker","98","48654","105","yes","1024"
"92.4528301887","92.4528301887","463.490566038","463.490566038","black","no","legacy","legacy","legacy","0","incongruent","uniform","0","undefined","0","s","105","0","0","0","105","0","105","0","105","0","0","0","105","105","105","105","09/09/18 21:19:43","600","The main experiment item","yes","F:\","no","mono","no","18","no","white","no","yes","768","legacy","25","79","F:/mc-subject-2.csv","legacy","Jazzy James","3.1.9","0","h","NA","s","h","NA","h","476","NA","39947","101641","NA","476","2","legacy","1024","2","48000","-16","experiment","HHSHH","2","even","324501","42664","283615","NA","312620","2708","NA","NA","325606","2714","181969","NA","325709","326190","325601","325709","Flanker","98","49130","106","yes","1024"
"92.523364486","92.523364486","463.056074766","463.056074766","black","no","legacy","legacy","legacy","0","congruent","uniform","1","undefined","1","h","106","0","0","0","106","0","106","0","106","0","0","0","106","106","106","106","09/09/18 21:19:43","600","The main experiment item","yes","F:\","no","mono","no","18","no","white","no","yes","768","legacy","26","79","F:/mc-subject-2.csv","legacy","Jazzy James","3.1.9","0","h","NA","s","h","NA","h","417","NA","39947","101641","NA","417","2","legacy","1024","2","48000","-16","experiment","HHHHH","2","even","326707","42664","283615","NA","326203","2708","NA","NA","327830","2714","181969","NA","327934","328356","327826","327934","Flanker","99","49547","107","yes","1024"
"92.5925925926","92.5925925926","462.055555556","462.055555556","black","no","legacy","legacy","legacy","0","congruent","uniform","1","undefined","1","s","107","0","0","0","107","0","107","0","107","0","0","0","107","107","107","107","09/09/18 21:19:43","600","The main experiment item","yes","F:\","no","mono","no","18","no","white","no","yes","768","legacy","27","79","F:/mc-subject-2.csv","legacy","Jazzy James","3.1.9","0","s","NA","s","h","NA","s","355","NA","39947","101641","NA","355","2","legacy","1024","2","48000","-16","experiment","SSSSS","2","even","328368","42664","283615","NA","326203","2708","NA","NA","329472","2714","181969","NA","329575","329935","329468","329575","Flanker","100","49902","108","yes","1024"
"92.6605504587","92.6605504587","461.339449541","461.339449541","black","no","legacy","legacy","legacy","0","congruent","uniform","1","undefined","1","h","108","0","0","0","108","0","108","0","108","0","0","0","108","108","108","108","09/09/18 21:19:43","600","The main experiment item","yes","F:\","no","mono","no","18","no","white","no","yes","768","legacy","28","79","F:/mc-subject-2.csv","legacy","Jazzy James","3.1.9","0","h","NA","s","h","NA","h","384","NA","39947","101641","NA","384","2","legacy","1024","2","48000","-16","experiment","HHHHH","2","even","329950","42664","283615","NA","326203","2708","NA","NA","331051","2714","181969","NA","331154","331542","331047","331154","Flanker","101","50286","109","yes","1024"
"92.7272727273","92.7272727273","460.936363636","460.936363636","black","no","legacy","legacy","legacy","0","congruent","uniform","1","undefined","1","s","109","0","0","0","109","0","109","0","109","0","0","0","109","109","109","109","09/09/18 21:19:43","600","The main experiment item","yes","F:\","no","mono","no","18","no","white","no","yes","768","legacy","29","79","F:/mc-subject-2.csv","legacy","Jazzy James","3.1.9","0","s","NA","s","h","NA","s","417","NA","39947","101641","NA","417","2","legacy","1024","2","48000","-16","experiment","SSSSS","2","even","331555","42664","283615","NA","326203","2708","NA","NA","332655","2714","181969","NA","332759","333181","332651","332759","Flanker","102","50703","110","yes","1024"
"92.7927927928","92.7927927928","460.756756757","460.756756757","black","no","legacy","legacy","legacy","0","incongruent","uniform","1","undefined","1","s","110","0","0","0","110","0","110","0","110","0","0","0","110","110","110","110","09/09/18 21:19:43","600","The main experiment item","yes","F:\","no","mono","no","18","no","white","no","yes","768","legacy","30","79","F:/mc-subject-2.csv","legacy","Jazzy James","3.1.9","0","s","NA","s","h","NA","s","441","NA","39947","101641","NA","441","2","legacy","1024","2","48000","-16","experiment","HHSHH","2","even","333193","42664","283615","NA","326203","2708","NA","NA","334300","2714","181969","NA","334405","334851","334294","334404","Flanker","103","51144","111","yes","1024"
"92.8571428571","92.8571428571","459.973214286","459.973214286","black","no","legacy","legacy","legacy","0","congruent","uniform","1","undefined","1","s","111","0","0","0","111","0","111","0","111","0","0","0","111","111","111","111","09/09/18 21:19:43","600","The main experiment item","yes","F:\","no","mono","no","18","no","white","no","yes","768","legacy","31","79","F:/mc-subject-2.csv","legacy","Jazzy James","3.1.9","0","s","NA","s","h","NA","s","373","NA","39947","101641","NA","373","2","legacy","1024","2","48000","-16","experiment","SSSSS","2","even","334865","42664","283615","NA","326203","2708","NA","NA","335962","2714","181969","NA","336065","336442","335957","336065","Flanker","104","51517","112","yes","1024"
"92.9203539823","92.9203539823","459.017699115","459.017699115","black","no","legacy","legacy","legacy","0","congruent","uniform","1","undefined","1","h","112","0","0","0","112","0","112","0","112","0","0","0","112","112","112","112","09/09/18 21:19:43","600","The main experiment item","yes","F:\","no","mono","no","18","no","white","no","yes","768","legacy","32","79","F:/mc-subject-2.csv","legacy","Jazzy James","3.1.9","0","h","NA","s","h","NA","h","352","NA","39947","101641","NA","352","2","legacy","1024","2","48000","-16","experiment","HHHHH","2","even","336454","42664","283615","NA","326203","2708","NA","NA","337556","2714","181969","NA","337659","338015","337551","337659","Flanker","105","51869","113","yes","1024"
"92.9824561404","92.9824561404","459.105263158","459.105263158","black","no","legacy","legacy","legacy","0","incongruent","uniform","1","undefined","1","s","113","0","0","0","113","0","113","0","113","0","0","0","113","113","113","113","09/09/18 21:19:43","600","The main experiment item","yes","F:\","no","mono","no","18","no","white","no","yes","768","legacy","33","79","F:/mc-subject-2.csv","legacy","Jazzy James","3.1.9","0","s","NA","s","h","NA","s","469","NA","39947","101641","NA","469","2","legacy","1024","2","48000","-16","experiment","HHSHH","2","even","338026","42664","283615","NA","326203","2708","NA","NA","339140","2714","181969","NA","339243","339717","339135","339243","Flanker","106","52338","114","yes","1024"
"93.0434782609","93.0434782609","458.817391304","458.817391304","black","no","legacy","legacy","legacy","0","incongruent","uniform","1","undefined","1","s","114","0","0","0","114","0","114","0","114","0","0","0","114","114","114","114","09/09/18 21:19:43","600","The main experiment item","yes","F:\","no","mono","no","18","no","white","no","yes","768","legacy","34","79","F:/mc-subject-2.csv","legacy","Jazzy James","3.1.9","0","s","NA","s","h","NA","s","426","NA","39947","101641","NA","426","2","legacy","1024","2","48000","-16","experiment","HHSHH","2","even","339729","42664","283615","NA","326203","2708","NA","NA","340831","2714","181969","NA","340936","341367","340827","340935","Flanker","107","52764","115","yes","1024"
"93.1034482759","93.1034482759","458.137931034","458.137931034","black","no","legacy","legacy","legacy","0","incongruent","uniform","1","undefined","1","s","115","0","0","0","115","0","115","0","115","0","0","0","115","115","115","115","09/09/18 21:19:43","600","The main experiment item","yes","F:\","no","mono","no","18","no","white","no","yes","768","legacy","35","79","F:/mc-subject-2.csv","legacy","Jazzy James","3.1.9","0","s","NA","s","h","NA","s","380","NA","39947","101641","NA","380","2","legacy","1024","2","48000","-16","experiment","HHSHH","2","even","341377","42664","283615","NA","326203","2708","NA","NA","342482","2714","181969","NA","342586","342970","342474","342586","Flanker","108","53144","116","yes","1024"
"93.1623931624","93.1623931624","458.538461538","458.538461538","black","no","legacy","legacy","legacy","0","incongruent","uniform","1","undefined","1","h","116","0","0","0","116","0","116","0","116","0","0","0","116","116","116","116","09/09/18 21:19:43","600","The main experiment item","yes","F:\","no","mono","no","18","no","white","no","yes","768","legacy","36","79","F:/mc-subject-2.csv","legacy","Jazzy James","3.1.9","0","h","NA","s","h","NA","h","505","NA","39947","101641","NA","505","2","legacy","1024","2","48000","-16","experiment","SSHSS","2","even","342982","42664","283615","NA","326203","2708","NA","NA","344094","2714","181969","NA","344198","344707","344090","344198","Flanker","109","53649","117","yes","1024"
"93.2203389831","93.2203389831","458.347457627","458.347457627","black","no","legacy","legacy","legacy","0","incongruent","uniform","1","undefined","1","s","117","0","0","0","117","0","117","0","117","0","0","0","117","117","117","117","09/09/18 21:19:43","600","The main experiment item","yes","F:\","no","mono","no","18","no","white","no","yes","768","legacy","37","79","F:/mc-subject-2.csv","legacy","Jazzy James","3.1.9","0","s","NA","s","h","NA","s","436","NA","39947","101641","NA","436","2","legacy","1024","2","48000","-16","experiment","HHSHH","2","even","344718","42664","283615","NA","326203","2708","NA","NA","345834","2714","181969","NA","345937","346378","345829","345937","Flanker","110","54085","118","yes","1024"
"93.2773109244","93.2773109244","458.016806723","458.016806723","black","no","legacy","legacy","legacy","0","congruent","uniform","1","undefined","1","h","118","0","0","0","118","0","118","0","118","0","0","0","118","118","118","118","09/09/18 21:19:43","600","The main experiment item","yes","F:\","no","mono","no","18","no","white","no","yes","768","legacy","38","79","F:/mc-subject-2.csv","legacy","Jazzy James","3.1.9","0","h","NA","s","h","NA","h","419","NA","39947","101641","NA","419","2","legacy","1024","2","48000","-16","experiment","HHHHH","2","even","346389","42664","283615","NA","326203","2708","NA","NA","347495","2714","181969","NA","347598","348022","347491","347598","Flanker","111","54504","119","yes","1024"
"93.3333333333","93.3333333333","456.983333333","456.983333333","black","no","legacy","legacy","legacy","0","congruent","uniform","1","undefined","1","s","119","0","0","0","119","0","119","0","119","0","0","0","119","119","119","119","09/09/18 21:19:43","600","The main experiment item","yes","F:\","no","mono","no","18","no","white","no","yes","768","legacy","39","79","F:/mc-subject-2.csv","legacy","Jazzy James","3.1.9","0","s","NA","s","h","NA","s","334","NA","39947","101641","NA","334","2","legacy","1024","2","48000","-16","experiment","SSSSS","2","even","348032","42664","283615","NA","326203","2708","NA","NA","349135","2714","181969","NA","349239","349577","349131","349239","Flanker","112","54838","120","yes","1024"
"93.3884297521","93.3884297521","456.661157025","456.661157025","black","no","legacy","legacy","legacy","0","congruent","uniform","1","undefined","1","h","120","0","0","0","120","0","120","0","120","0","0","0","120","120","120","120","09/09/18 21:19:43","600","The main experiment item","yes","F:\","no","mono","no","18","no","white","no","yes","768","legacy","40","79","F:/mc-subject-2.csv","legacy","Jazzy James","3.1.9","0","h","NA","s","h","NA","h","418","NA","39947","101641","NA","418","2","legacy","1024","2","48000","-16","experiment","HHHHH","2","even","349590","42664","283615","NA","326203","2708","NA","NA","350699","2714","181969","NA","350803","351227","350695","350803","Flanker","113","55256","121","yes","1024"
"93.4426229508","93.4426229508","456.12295082","456.12295082","black","no","legacy","legacy","legacy","0","incongruent","uniform","1","undefined","1","h","121","0","0","0","121","0","121","0","121","0","0","0","121","121","121","121","09/09/18 21:19:43","600","The main experiment item","yes","F:\","no","mono","no","18","no","white","no","yes","768","legacy","41","79","F:/mc-subject-2.csv","legacy","Jazzy James","3.1.9","0","h","NA","s","h","NA","h","391","NA","39947","101641","NA","391","2","legacy","1024","2","48000","-16","experiment","SSHSS","2","even","351242","42664","283615","NA","326203","2708","NA","NA","352347","2714","181969","NA","352450","352846","352342","352450","Flanker","114","55647","122","yes","1024"
"93.4959349593","93.4959349593","455.585365854","455.585365854","black","no","legacy","legacy","legacy","0","incongruent","uniform","1","undefined","1","h","122","0","0","0","122","0","122","0","122","0","0","0","122","122","122","122","09/09/18 21:19:43","600","The main experiment item","yes","F:\","no","mono","no","18","no","white","no","yes","768","legacy","42","79","F:/mc-subject-2.csv","legacy","Jazzy James","3.1.9","0","h","NA","s","h","NA","h","390","NA","39947","101641","NA","390","2","legacy","1024","2","48000","-16","experiment","SSHSS","2","even","352863","42664","283615","NA","326203","2708","NA","NA","353962","2714","181969","NA","354065","354460","353957","354065","Flanker","115","56037","123","yes","1024"
"93.5483870968","93.5483870968","455.564516129","455.564516129","black","no","legacy","legacy","legacy","0","congruent","uniform","1","undefined","1","s","123","0","0","0","123","0","123","0","123","0","0","0","123","123","123","123","09/09/18 21:19:43","600","The main experiment item","yes","F:\","no","mono","no","18","no","white","no","yes","768","legacy","43","79","F:/mc-subject-2.csv","legacy","Jazzy James","3.1.9","0","s","NA","s","h","NA","s","453","NA","39947","101641","NA","453","2","legacy","1024","2","48000","-16","experiment","SSSSS","2","even","354471","42664","283615","NA","326203","2708","NA","NA","355572","2714","181969","NA","355675","356134","355568","355675","Flanker","116","56490","124","yes","1024"
"93.6","93.6","456.456","456.456","black","no","legacy","legacy","legacy","0","incongruent","uniform","1","undefined","1","s","124","0","0","0","124","0","124","0","124","0","0","0","124","124","124","124","09/09/18 21:19:43","600","The main experiment item","yes","F:\","no","mono","no","18","no","white","no","yes","768","legacy","44","79","F:/mc-subject-2.csv","legacy","Jazzy James","3.1.9","0","s","NA","s","h","NA","s","567","NA","39947","101641","NA","567","2","legacy","1024","2","48000","-16","experiment","HHSHH","2","even","356146","42664","283615","NA","326203","2708","NA","NA","357244","2714","181969","NA","357347","357919","357240","357347","Flanker","117","57057","125","yes","1024"
"93.6507936508","93.6507936508","455.761904762","455.761904762","black","no","legacy","legacy","legacy","0","incongruent","uniform","1","undefined","1","s","125","0","0","0","125","0","125","0","125","0","0","0","125","125","125","125","09/09/18 21:19:43","600","The main experiment item","yes","F:\","no","mono","no","18","no","white","no","yes","768","legacy","45","79","F:/mc-subject-2.csv","legacy","Jazzy James","3.1.9","0","s","NA","s","h","NA","s","369","NA","39947","101641","NA","369","2","legacy","1024","2","48000","-16","experiment","HHSHH","2","even","357931","42664","283615","NA","326203","2708","NA","NA","359034","2714","181969","NA","359137","359511","359030","359137","Flanker","118","57426","126","yes","1024"
"93.7007874016","93.7007874016","454.866141732","454.866141732","black","no","legacy","legacy","legacy","0","congruent","uniform","1","undefined","1","h","126","0","0","0","126","0","126","0","126","0","0","0","126","126","126","126","09/09/18 21:19:43","600","The main experiment item","yes","F:\","no","mono","no","18","no","white","no","yes","768","legacy","46","79","F:/mc-subject-2.csv","legacy","Jazzy James","3.1.9","0","h","NA","s","h","NA","h","342","NA","39947","101641","NA","342","2","legacy","1024","2","48000","-16","experiment","HHHHH","2","even","359522","42664","283615","NA","326203","2708","NA","NA","360623","2714","181969","NA","360728","361075","360619","360727","Flanker","119","57768","127","yes","1024"
"93.75","93.75","454.3671875","454.3671875","black","no","legacy","legacy","legacy","0","congruent","uniform","1","undefined","1","s","127","0","0","0","127","0","127","0","127","0","0","0","127","127","127","127","09/09/18 21:19:43","600","The main experiment item","yes","F:\","no","mono","no","18","no","white","no","yes","768","legacy","47","79","F:/mc-subject-2.csv","legacy","Jazzy James","3.1.9","0","s","NA","s","h","NA","s","391","NA","39947","101641","NA","391","2","legacy","1024","2","48000","-16","experiment","SSSSS","2","even","361089","42664","283615","NA","326203","2708","NA","NA","362196","2714","181969","NA","362299","362695","362191","362299","Flanker","120","58159","128","yes","1024"
"93.7984496124","93.7984496124","454","454","black","no","legacy","legacy","legacy","0","congruent","uniform","1","undefined","1","s","128","0","0","0","128","0","128","0","128","0","0","0","128","128","128","128","09/09/18 21:19:43","600","The main experiment item","yes","F:\","no","mono","no","18","no","white","no","yes","768","legacy","48","79","F:/mc-subject-2.csv","legacy","Jazzy James","3.1.9","0","s","NA","s","h","NA","s","407","NA","39947","101641","NA","407","2","legacy","1024","2","48000","-16","experiment","SSSSS","2","even","362706","42664","283615","NA","326203","2708","NA","NA","363813","2714","181969","NA","363917","364332","363809","363917","Flanker","121","58566","129","yes","1024"
"93.8461538462","93.8461538462","453.876923077","453.876923077","black","no","legacy","legacy","legacy","0","incongruent","uniform","1","undefined","1","h","129","0","0","0","129","0","129","0","129","0","0","0","129","129","129","129","09/09/18 21:19:43","600","The main experiment item","yes","F:\","no","mono","no","18","no","white","no","yes","768","legacy","49","79","F:/mc-subject-2.csv","legacy","Jazzy James","3.1.9","0","h","NA","s","h","NA","h","438","NA","39947","101641","NA","438","2","legacy","1024","2","48000","-16","experiment","SSHSS","2","even","364347","42664","283615","NA","326203","2708","NA","NA","365451","2714","181969","NA","365555","365999","365447","365555","Flanker","122","59004","130","yes","1024"
"93.1297709924","93.1297709924","453.465648855","453.465648855","black","no","legacy","legacy","legacy","0","incongruent","uniform","0","undefined","0","s","130","0","0","0","130","0","130","0","130","0","0","0","130","130","130","130","09/09/18 21:19:43","600","The main experiment item","yes","F:\","no","mono","no","18","no","white","no","yes","768","legacy","50","79","F:/mc-subject-2.csv","legacy","Jazzy James","3.1.9","0","h","NA","s","h","NA","h","400","NA","39947","101641","NA","400","2","legacy","1024","2","48000","-16","experiment","HHSHH","2","even","366010","42664","283615","NA","326203","2708","NA","NA","367119","2714","181969","NA","367225","367631","367114","367224","Flanker","122","59404","131","yes","1024"
"93.1818181818","93.1818181818","453.689393939","453.689393939","black","no","legacy","legacy","legacy","0","congruent","uniform","1","undefined","1","s","131","0","0","0","131","0","131","0","131","0","0","0","131","131","131","131","09/09/18 21:19:43","600","The main experiment item","yes","F:\","no","mono","no","18","no","white","no","yes","768","legacy","51","79","F:/mc-subject-2.csv","legacy","Jazzy James","3.1.9","0","s","NA","s","h","NA","s","483","NA","39947","101641","NA","483","2","legacy","1024","2","48000","-16","experiment","SSSSS","2","even","368154","42664","283615","NA","367651","2708","NA","NA","369262","2714","181969","NA","369366","369854","369258","369366","Flanker","123","59887","132","yes","1024"
"93.2330827068","93.2330827068","453.834586466","453.834586466","black","no","legacy","legacy","legacy","0","incongruent","uniform","1","undefined","1","h","132","0","0","0","132","0","132","0","132","0","0","0","132","132","132","132","09/09/18 21:19:43","600","The main experiment item","yes","F:\","no","mono","no","18","no","white","no","yes","768","legacy","52","79","F:/mc-subject-2.csv","legacy","Jazzy James","3.1.9","0","h","NA","s","h","NA","h","473","NA","39947","101641","NA","473","2","legacy","1024","2","48000","-16","experiment","SSHSS","2","even","369867","42664","283615","NA","367651","2708","NA","NA","370983","2714","181969","NA","371086","371565","370978","371086","Flanker","124","60360","133","yes","1024"
"93.2835820896","93.2835820896","453.567164179","453.567164179","black","no","legacy","legacy","legacy","0","congruent","uniform","1","undefined","1","s","133","0","0","0","133","0","133","0","133","0","0","0","133","133","133","133","09/09/18 21:19:43","600","The main experiment item","yes","F:\","no","mono","no","18","no","white","no","yes","768","legacy","53","79","F:/mc-subject-2.csv","legacy","Jazzy James","3.1.9","0","s","NA","s","h","NA","s","418","NA","39947","101641","NA","418","2","legacy","1024","2","48000","-16","experiment","SSSSS","2","even","371579","42664","283615","NA","367651","2708","NA","NA","372691","2714","181969","NA","372796","373220","372686","372796","Flanker","125","60778","134","yes","1024"
"93.3333333333","93.3333333333","453.903703704","453.903703704","black","no","legacy","legacy","legacy","0","congruent","uniform","1","undefined","1","h","134","0","0","0","134","0","134","0","134","0","0","0","134","134","134","134","09/09/18 21:19:43","600","The main experiment item","yes","F:\","no","mono","no","18","no","white","no","yes","768","legacy","54","79","F:/mc-subject-2.csv","legacy","Jazzy James","3.1.9","0","h","NA","s","h","NA","h","499","NA","39947","101641","NA","499","2","legacy","1024","2","48000","-16","experiment","HHHHH","2","even","373232","42664","283615","NA","367651","2708","NA","NA","374335","2714","181969","NA","374438","374943","374331","374437","Flanker","126","61277","135","yes","1024"
"93.3823529412","93.3823529412","454.544117647","454.544117647","black","no","legacy","legacy","legacy","0","incongruent","uniform","1","undefined","1","h","135","0","0","0","135","0","135","0","135","0","0","0","135","135","135","135","09/09/18 21:19:43","600","The main experiment item","yes","F:\","no","mono","no","18","no","white","no","yes","768","legacy","55","79","F:/mc-subject-2.csv","legacy","Jazzy James","3.1.9","0","h","NA","s","h","NA","h","541","NA","39947","101641","NA","541","2","legacy","1024","2","48000","-16","experiment","SSHSS","2","even","374955","42664","283615","NA","367651","2708","NA","NA","376060","2714","181969","NA","376174","376720","376056","376174","Flanker","127","61818","136","yes","1024"
"93.4306569343","93.4306569343","454.642335766","454.642335766","black","no","legacy","legacy","legacy","0","incongruent","uniform","1","undefined","1","s","136","0","0","0","136","0","136","0","136","0","0","0","136","136","136","136","09/09/18 21:19:43","600","The main experiment item","yes","F:\","no","mono","no","18","no","white","no","yes","768","legacy","56","79","F:/mc-subject-2.csv","legacy","Jazzy James","3.1.9","0","s","NA","s","h","NA","s","468","NA","39947","101641","NA","468","2","legacy","1024","2","48000","-16","experiment","HHSHH","2","even","376732","42664","283615","NA","367651","2708","NA","NA","377837","2714","181969","NA","377943","378416","377833","377943","Flanker","128","62286","137","yes","1024"
"93.4782608696","93.4782608696","454.862318841","454.862318841","black","no","legacy","legacy","legacy","0","incongruent","uniform","1","undefined","1","s","137","0","0","0","137","0","137","0","137","0","0","0","137","137","137","137","09/09/18 21:19:43","600","The main experiment item","yes","F:\","no","mono","no","18","no","white","no","yes","768","legacy","57","79","F:/mc-subject-2.csv","legacy","Jazzy James","3.1.9","0","s","NA","s","h","NA","s","485","NA","39947","101641","NA","485","2","legacy","1024","2","48000","-16","experiment","HHSHH","2","even","378428","42664","283615","NA","367651","2708","NA","NA","379529","2714","181969","NA","379633","380124","379525","379633","Flanker","129","62771","138","yes","1024"
