"acc","accuracy","average_response_time","avg_rt","background","canvas_backend","clock_backend","color_backend","compensation","condition","coordinates","correct","correct_instructions1","correct_keyboard_response","correct_response","count_Block1","count_Block2","count_Block3","count_ISI","count_Instructions3","count_error_feedback","count_experiment","count_faster","count_finish","count_fixation","count_instructions1","count_instructions2","count_keyboard_response","count_logger","count_sequence","count_stimulus","datetime","deadline","description","disable_garbage_collection","experiment_file","experiment_path","font_bold","font_family","font_italic","font_size","font_underline","foreground","form_clicks","fullscreen","height","keyboard_backend","live_row","live_row_Block1","logfile","mouse_backend","opensesame_codename","opensesame_version","repeat_cycle","response","response_Instructions3","response_finish","response_instructions1","response_instructions2","response_keyboard_response","response_time","response_time_Instructions3","response_time_finish","response_time_instructions1","response_time_instructions2","response_time_keyboard_response","round_decimals","sampler_backend","sound_buf_size","sound_channels","sound_freq","sound_sample_size","start","stimulus","subject_nr","subject_parity","time_Block1","time_Block2","time_Block3","time_ISI","time_Instructions3","time_error_feedback","time_experiment","time_faster","time_finish","time_fixation","time_instructions1","time_instructions2","time_keyboard_response","time_logger","time_sequence","time_stimulus","title","total_correct","total_response_time","total_responses","uniform_coordinates","width"
"100","100","1102","1102","black","legacy","legacy","legacy","0","Congruent","uniform","1","undefined","1","s","0","0","0","0","0","0","0","0","0","0","0","0","0","0","0","0","09/04/18 22:38:10","1500","The main experiment item","yes","Flankertask.osexp","C:/Users/Brad/OneDrive/Desktop/Tarleton school stuff/Fall 2018/Advanced Quantitative Methods","no","mono","no","18","no","white","no","yes","768","legacy","0","0","C:/Users/Brad/OneDrive/Desktop/Tarleton school stuff/Fall 2018/Advanced Quantitative Methods/bh-subject-1.csv","legacy","Kafkaesque Koffka","3.2.5","0","s","NA","NA","h","NA","s","1102","NA","NA","7040","NA","1102","2","legacy","1024","2","48000","-16","experiment","SSSSS","1","odd","9433","NA","NA","NA","NA","NA","2387","NA","NA","9506","2392","NA","9607","10709","9504","9607","Flanker task","1","1102","1","yes","1024"
"100","100","817.5","817.5","black","legacy","legacy","legacy","0","Congruent","uniform","1","undefined","1","s","0","0","0","1","0","1","0","1","0","1","0","0","1","1","1","1","09/04/18 22:38:10","1500","The main experiment item","yes","Flankertask.osexp","C:/Users/Brad/OneDrive/Desktop/Tarleton school stuff/Fall 2018/Advanced Quantitative Methods","no","mono","no","18","no","white","no","yes","768","legacy","1","1","C:/Users/Brad/OneDrive/Desktop/Tarleton school stuff/Fall 2018/Advanced Quantitative Methods/bh-subject-1.csv","legacy","Kafkaesque Koffka","3.2.5","0","s","NA","NA","h","NA","s","533","NA","NA","7040","NA","533","2","legacy","1024","2","48000","-16","experiment","SSSSS","1","odd","9433","NA","NA","10718","NA","NA","2387","NA","NA","11786","2392","NA","11888","12422","11783","11888","Flanker task","2","1635","2","yes","1024"
"100","100","746","746","black","legacy","legacy","legacy","0","Congruent","uniform","1","undefined","1","h","0","0","0","2","0","2","0","2","0","2","0","0","2","2","2","2","09/04/18 22:38:10","1500","The main experiment item","yes","Flankertask.osexp","C:/Users/Brad/OneDrive/Desktop/Tarleton school stuff/Fall 2018/Advanced Quantitative Methods","no","mono","no","18","no","white","no","yes","768","legacy","2","2","C:/Users/Brad/OneDrive/Desktop/Tarleton school stuff/Fall 2018/Advanced Quantitative Methods/bh-subject-1.csv","legacy","Kafkaesque Koffka","3.2.5","0","h","NA","NA","h","NA","h","603","NA","NA","7040","NA","603","2","legacy","1024","2","48000","-16","experiment","HHHHH","1","odd","9433","NA","NA","12433","NA","NA","2387","NA","NA","13498","2392","NA","13599","14203","13495","13599","Flanker task","3","2238","3","yes","1024"
"100","100","710","710","black","legacy","legacy","legacy","0","Incongruent","uniform","1","undefined","1","s","0","0","0","3","0","3","0","3","0","3","0","0","3","3","3","3","09/04/18 22:38:10","1500","The main experiment item","yes","Flankertask.osexp","C:/Users/Brad/OneDrive/Desktop/Tarleton school stuff/Fall 2018/Advanced Quantitative Methods","no","mono","no","18","no","white","no","yes","768","legacy","3","3","C:/Users/Brad/OneDrive/Desktop/Tarleton school stuff/Fall 2018/Advanced Quantitative Methods/bh-subject-1.csv","legacy","Kafkaesque Koffka","3.2.5","0","s","NA","NA","h","NA","s","602","NA","NA","7040","NA","602","2","legacy","1024","2","48000","-16","experiment","HHSHH","1","odd","9433","NA","NA","14213","NA","NA","2387","NA","NA","15278","2392","NA","15381","15984","15275","15380","Flanker task","4","2840","4","yes","1024"
"100","100","670.8","670.8","black","legacy","legacy","legacy","0","Congruent","uniform","1","undefined","1","h","0","0","0","4","0","4","0","4","0","4","0","0","4","4","4","4","09/04/18 22:38:10","1500","The main experiment item","yes","Flankertask.osexp","C:/Users/Brad/OneDrive/Desktop/Tarleton school stuff/Fall 2018/Advanced Quantitative Methods","no","mono","no","18","no","white","no","yes","768","legacy","4","4","C:/Users/Brad/OneDrive/Desktop/Tarleton school stuff/Fall 2018/Advanced Quantitative Methods/bh-subject-1.csv","legacy","Kafkaesque Koffka","3.2.5","0","h","NA","NA","h","NA","h","514","NA","NA","7040","NA","514","2","legacy","1024","2","48000","-16","experiment","HHHHH","1","odd","9433","NA","NA","15988","NA","NA","2387","NA","NA","17053","2392","NA","17155","17669","17050","17154","Flanker task","5","3354","5","yes","1024"
"100","100","632.5","632.5","black","legacy","legacy","legacy","0","Congruent","uniform","1","undefined","1","h","0","0","0","5","0","5","0","5","0","5","0","0","5","5","5","5","09/04/18 22:38:10","1500","The main experiment item","yes","Flankertask.osexp","C:/Users/Brad/OneDrive/Desktop/Tarleton school stuff/Fall 2018/Advanced Quantitative Methods","no","mono","no","18","no","white","no","yes","768","legacy","5","5","C:/Users/Brad/OneDrive/Desktop/Tarleton school stuff/Fall 2018/Advanced Quantitative Methods/bh-subject-1.csv","legacy","Kafkaesque Koffka","3.2.5","0","h","NA","NA","h","NA","h","441","NA","NA","7040","NA","441","2","legacy","1024","2","48000","-16","experiment","HHHHH","1","odd","9433","NA","NA","17680","NA","NA","2387","NA","NA","18744","2392","NA","18846","19288","18741","18845","Flanker task","6","3795","6","yes","1024"
"100","100","622.714285714","622.714285714","black","legacy","legacy","legacy","0","Incongruent","uniform","1","undefined","1","h","0","0","0","6","0","6","0","6","0","6","0","0","6","6","6","6","09/04/18 22:38:10","1500","The main experiment item","yes","Flankertask.osexp","C:/Users/Brad/OneDrive/Desktop/Tarleton school stuff/Fall 2018/Advanced Quantitative Methods","no","mono","no","18","no","white","no","yes","768","legacy","6","6","C:/Users/Brad/OneDrive/Desktop/Tarleton school stuff/Fall 2018/Advanced Quantitative Methods/bh-subject-1.csv","legacy","Kafkaesque Koffka","3.2.5","0","h","NA","NA","h","NA","h","564","NA","NA","7040","NA","564","2","legacy","1024","2","48000","-16","experiment","SSHSS","1","odd","9433","NA","NA","19298","NA","NA","2387","NA","NA","20362","2392","NA","20463","21028","20359","20463","Flanker task","7","4359","7","yes","1024"
"100","100","612.25","612.25","black","legacy","legacy","legacy","0","Incongruent","uniform","1","undefined","1","h","0","0","0","7","0","7","0","7","0","7","0","0","7","7","7","7","09/04/18 22:38:10","1500","The main experiment item","yes","Flankertask.osexp","C:/Users/Brad/OneDrive/Desktop/Tarleton school stuff/Fall 2018/Advanced Quantitative Methods","no","mono","no","18","no","white","no","yes","768","legacy","7","7","C:/Users/Brad/OneDrive/Desktop/Tarleton school stuff/Fall 2018/Advanced Quantitative Methods/bh-subject-1.csv","legacy","Kafkaesque Koffka","3.2.5","0","h","NA","NA","h","NA","h","539","NA","NA","7040","NA","539","2","legacy","1024","2","48000","-16","experiment","SSHSS","1","odd","9433","NA","NA","21038","NA","NA","2387","NA","NA","22104","2392","NA","22205","22744","22101","22205","Flanker task","8","4898","8","yes","1024"
"88.8888888889","88.8888888889","599.444444444","599.444444444","black","legacy","legacy","legacy","0","Incongruent","uniform","0","undefined","0","s","0","0","0","8","0","8","0","8","0","8","0","0","8","8","8","8","09/04/18 22:38:10","1500","The main experiment item","yes","Flankertask.osexp","C:/Users/Brad/OneDrive/Desktop/Tarleton school stuff/Fall 2018/Advanced Quantitative Methods","no","mono","no","18","no","white","no","yes","768","legacy","8","8","C:/Users/Brad/OneDrive/Desktop/Tarleton school stuff/Fall 2018/Advanced Quantitative Methods/bh-subject-1.csv","legacy","Kafkaesque Koffka","3.2.5","0","h","NA","NA","h","NA","h","497","NA","NA","7040","NA","497","2","legacy","1024","2","48000","-16","experiment","HHSHH","1","odd","9433","NA","NA","22755","NA","NA","2387","NA","NA","23818","2392","NA","23921","24418","23816","23920","Flanker task","8","5395","9","yes","1024"
"90","90","603.5","603.5","black","legacy","legacy","legacy","0","Incongruent","uniform","1","undefined","1","h","0","0","0","9","0","9","0","9","0","9","0","0","9","9","9","9","09/04/18 22:38:10","1500","The main experiment item","yes","Flankertask.osexp","C:/Users/Brad/OneDrive/Desktop/Tarleton school stuff/Fall 2018/Advanced Quantitative Methods","no","mono","no","18","no","white","no","yes","768","legacy","9","9","C:/Users/Brad/OneDrive/Desktop/Tarleton school stuff/Fall 2018/Advanced Quantitative Methods/bh-subject-1.csv","legacy","Kafkaesque Koffka","3.2.5","0","h","NA","NA","h","NA","h","640","NA","NA","7040","NA","640","2","legacy","1024","2","48000","-16","experiment","SSHSS","1","odd","9433","NA","NA","24931","NA","24429","2387","NA","NA","25995","2392","NA","26097","26737","25992","26096","Flanker task","9","6035","10","yes","1024"
"90.9090909091","90.9090909091","593.818181818","593.818181818","black","legacy","legacy","legacy","0","Incongruent","uniform","1","undefined","1","h","0","0","0","10","0","10","0","10","0","10","0","0","10","10","10","10","09/04/18 22:38:10","1500","The main experiment item","yes","Flankertask.osexp","C:/Users/Brad/OneDrive/Desktop/Tarleton school stuff/Fall 2018/Advanced Quantitative Methods","no","mono","no","18","no","white","no","yes","768","legacy","10","10","C:/Users/Brad/OneDrive/Desktop/Tarleton school stuff/Fall 2018/Advanced Quantitative Methods/bh-subject-1.csv","legacy","Kafkaesque Koffka","3.2.5","0","h","NA","NA","h","NA","h","497","NA","NA","7040","NA","497","2","legacy","1024","2","48000","-16","experiment","SSHSS","1","odd","9433","NA","NA","26748","NA","24429","2387","NA","NA","27812","2392","NA","27914","28411","27810","27913","Flanker task","10","6532","11","yes","1024"
"91.6666666667","91.6666666667","584.5","584.5","black","legacy","legacy","legacy","0","Congruent","uniform","1","undefined","1","s","0","0","0","11","0","11","0","11","0","11","0","0","11","11","11","11","09/04/18 22:38:10","1500","The main experiment item","yes","Flankertask.osexp","C:/Users/Brad/OneDrive/Desktop/Tarleton school stuff/Fall 2018/Advanced Quantitative Methods","no","mono","no","18","no","white","no","yes","768","legacy","11","11","C:/Users/Brad/OneDrive/Desktop/Tarleton school stuff/Fall 2018/Advanced Quantitative Methods/bh-subject-1.csv","legacy","Kafkaesque Koffka","3.2.5","0","s","NA","NA","h","NA","s","482","NA","NA","7040","NA","482","2","legacy","1024","2","48000","-16","experiment","SSSSS","1","odd","9433","NA","NA","28422","NA","24429","2387","NA","NA","29489","2392","NA","29591","30074","29486","29591","Flanker task","11","7014","12","yes","1024"
"92.3076923077","92.3076923077","578.769230769","578.769230769","black","legacy","legacy","legacy","0","Congruent","uniform","1","undefined","1","h","0","0","0","12","0","12","0","12","0","12","0","0","12","12","12","12","09/04/18 22:38:10","1500","The main experiment item","yes","Flankertask.osexp","C:/Users/Brad/OneDrive/Desktop/Tarleton school stuff/Fall 2018/Advanced Quantitative Methods","no","mono","no","18","no","white","no","yes","768","legacy","12","12","C:/Users/Brad/OneDrive/Desktop/Tarleton school stuff/Fall 2018/Advanced Quantitative Methods/bh-subject-1.csv","legacy","Kafkaesque Koffka","3.2.5","0","h","NA","NA","h","NA","h","510","NA","NA","7040","NA","510","2","legacy","1024","2","48000","-16","experiment","HHHHH","1","odd","9433","NA","NA","30084","NA","24429","2387","NA","NA","31149","2392","NA","31251","31762","31146","31251","Flanker task","12","7524","13","yes","1024"
"92.8571428571","92.8571428571","578.785714286","578.785714286","black","legacy","legacy","legacy","0","Incongruent","uniform","1","undefined","1","h","0","0","0","13","0","13","0","13","0","13","0","0","13","13","13","13","09/04/18 22:38:10","1500","The main experiment item","yes","Flankertask.osexp","C:/Users/Brad/OneDrive/Desktop/Tarleton school stuff/Fall 2018/Advanced Quantitative Methods","no","mono","no","18","no","white","no","yes","768","legacy","13","13","C:/Users/Brad/OneDrive/Desktop/Tarleton school stuff/Fall 2018/Advanced Quantitative Methods/bh-subject-1.csv","legacy","Kafkaesque Koffka","3.2.5","0","h","NA","NA","h","NA","h","579","NA","NA","7040","NA","579","2","legacy","1024","2","48000","-16","experiment","SSHSS","1","odd","9433","NA","NA","31773","NA","24429","2387","NA","NA","32836","2392","NA","32937","33516","32834","32937","Flanker task","13","8103","14","yes","1024"
"93.3333333333","93.3333333333","574.6","574.6","black","legacy","legacy","legacy","0","Incongruent","uniform","1","undefined","1","h","0","0","0","14","0","14","0","14","0","14","0","0","14","14","14","14","09/04/18 22:38:10","1500","The main experiment item","yes","Flankertask.osexp","C:/Users/Brad/OneDrive/Desktop/Tarleton school stuff/Fall 2018/Advanced Quantitative Methods","no","mono","no","18","no","white","no","yes","768","legacy","14","14","C:/Users/Brad/OneDrive/Desktop/Tarleton school stuff/Fall 2018/Advanced Quantitative Methods/bh-subject-1.csv","legacy","Kafkaesque Koffka","3.2.5","0","h","NA","NA","h","NA","h","516","NA","NA","7040","NA","516","2","legacy","1024","2","48000","-16","experiment","SSHSS","1","odd","9433","NA","NA","33527","NA","24429","2387","NA","NA","34590","2392","NA","34692","35208","34588","34692","Flanker task","14","8619","15","yes","1024"
"93.75","93.75","571.25","571.25","black","legacy","legacy","legacy","0","Incongruent","uniform","1","undefined","1","h","0","0","0","15","0","15","0","15","0","15","0","0","15","15","15","15","09/04/18 22:38:10","1500","The main experiment item","yes","Flankertask.osexp","C:/Users/Brad/OneDrive/Desktop/Tarleton school stuff/Fall 2018/Advanced Quantitative Methods","no","mono","no","18","no","white","no","yes","768","legacy","15","15","C:/Users/Brad/OneDrive/Desktop/Tarleton school stuff/Fall 2018/Advanced Quantitative Methods/bh-subject-1.csv","legacy","Kafkaesque Koffka","3.2.5","0","h","NA","NA","h","NA","h","521","NA","NA","7040","NA","521","2","legacy","1024","2","48000","-16","experiment","SSHSS","1","odd","9433","NA","NA","35219","NA","24429","2387","NA","NA","36282","2392","NA","36384","36905","36279","36383","Flanker task","15","9140","16","yes","1024"
"94.1176470588","94.1176470588","566.058823529","566.058823529","black","legacy","legacy","legacy","0","Congruent","uniform","1","undefined","1","h","0","0","0","16","0","16","0","16","0","16","0","0","16","16","16","16","09/04/18 22:38:10","1500","The main experiment item","yes","Flankertask.osexp","C:/Users/Brad/OneDrive/Desktop/Tarleton school stuff/Fall 2018/Advanced Quantitative Methods","no","mono","no","18","no","white","no","yes","768","legacy","16","16","C:/Users/Brad/OneDrive/Desktop/Tarleton school stuff/Fall 2018/Advanced Quantitative Methods/bh-subject-1.csv","legacy","Kafkaesque Koffka","3.2.5","0","h","NA","NA","h","NA","h","483","NA","NA","7040","NA","483","2","legacy","1024","2","48000","-16","experiment","HHHHH","1","odd","9433","NA","NA","36916","NA","24429","2387","NA","NA","37981","2392","NA","38084","38568","37978","38083","Flanker task","16","9623","17","yes","1024"
"94.4444444444","94.4444444444","560.333333333","560.333333333","black","legacy","legacy","legacy","0","Incongruent","uniform","1","undefined","1","s","0","0","0","17","0","17","0","17","0","17","0","0","17","17","17","17","09/04/18 22:38:10","1500","The main experiment item","yes","Flankertask.osexp","C:/Users/Brad/OneDrive/Desktop/Tarleton school stuff/Fall 2018/Advanced Quantitative Methods","no","mono","no","18","no","white","no","yes","768","legacy","17","17","C:/Users/Brad/OneDrive/Desktop/Tarleton school stuff/Fall 2018/Advanced Quantitative Methods/bh-subject-1.csv","legacy","Kafkaesque Koffka","3.2.5","0","s","NA","NA","h","NA","s","463","NA","NA","7040","NA","463","2","legacy","1024","2","48000","-16","experiment","HHSHH","1","odd","9433","NA","NA","38578","NA","24429","2387","NA","NA","39646","2392","NA","39747","40210","39643","39747","Flanker task","17","10086","18","yes","1024"
"94.7368421053","94.7368421053","552.105263158","552.105263158","black","legacy","legacy","legacy","0","Incongruent","uniform","1","undefined","1","s","0","0","0","18","0","18","0","18","0","18","0","0","18","18","18","18","09/04/18 22:38:10","1500","The main experiment item","yes","Flankertask.osexp","C:/Users/Brad/OneDrive/Desktop/Tarleton school stuff/Fall 2018/Advanced Quantitative Methods","no","mono","no","18","no","white","no","yes","768","legacy","18","18","C:/Users/Brad/OneDrive/Desktop/Tarleton school stuff/Fall 2018/Advanced Quantitative Methods/bh-subject-1.csv","legacy","Kafkaesque Koffka","3.2.5","0","s","NA","NA","h","NA","s","404","NA","NA","7040","NA","404","2","legacy","1024","2","48000","-16","experiment","HHSHH","1","odd","9433","NA","NA","40221","NA","24429","2387","NA","NA","41286","2392","NA","41388","41792","41283","41387","Flanker task","18","10490","19","yes","1024"
"95","95","553.1","553.1","black","legacy","legacy","legacy","0","Incongruent","uniform","1","undefined","1","h","0","0","0","19","0","19","0","19","0","19","0","0","19","19","19","19","09/04/18 22:38:10","1500","The main experiment item","yes","Flankertask.osexp","C:/Users/Brad/OneDrive/Desktop/Tarleton school stuff/Fall 2018/Advanced Quantitative Methods","no","mono","no","18","no","white","no","yes","768","legacy","19","19","C:/Users/Brad/OneDrive/Desktop/Tarleton school stuff/Fall 2018/Advanced Quantitative Methods/bh-subject-1.csv","legacy","Kafkaesque Koffka","3.2.5","0","h","NA","NA","h","NA","h","572","NA","NA","7040","NA","572","2","legacy","1024","2","48000","-16","experiment","SSHSS","1","odd","9433","NA","NA","41803","NA","24429","2387","NA","NA","42866","2392","NA","42968","43540","42864","42967","Flanker task","19","11062","20","yes","1024"
"95.2380952381","95.2380952381","557.666666667","557.666666667","black","legacy","legacy","legacy","0","Incongruent","uniform","1","undefined","1","s","0","0","0","20","0","20","0","20","0","20","0","0","20","20","20","20","09/04/18 22:38:10","1500","The main experiment item","yes","Flankertask.osexp","C:/Users/Brad/OneDrive/Desktop/Tarleton school stuff/Fall 2018/Advanced Quantitative Methods","no","mono","no","18","no","white","no","yes","768","legacy","20","20","C:/Users/Brad/OneDrive/Desktop/Tarleton school stuff/Fall 2018/Advanced Quantitative Methods/bh-subject-1.csv","legacy","Kafkaesque Koffka","3.2.5","0","s","NA","NA","h","NA","s","649","NA","NA","7040","NA","649","2","legacy","1024","2","48000","-16","experiment","HHSHH","1","odd","9433","NA","NA","43551","NA","24429","2387","NA","NA","44617","2392","NA","44718","45368","44615","44718","Flanker task","20","11711","21","yes","1024"
"95.4545454545","95.4545454545","557.818181818","557.818181818","black","legacy","legacy","legacy","0","Congruent","uniform","1","undefined","1","s","0","0","0","21","0","21","0","21","0","21","0","0","21","21","21","21","09/04/18 22:38:10","1500","The main experiment item","yes","Flankertask.osexp","C:/Users/Brad/OneDrive/Desktop/Tarleton school stuff/Fall 2018/Advanced Quantitative Methods","no","mono","no","18","no","white","no","yes","768","legacy","21","21","C:/Users/Brad/OneDrive/Desktop/Tarleton school stuff/Fall 2018/Advanced Quantitative Methods/bh-subject-1.csv","legacy","Kafkaesque Koffka","3.2.5","0","s","NA","NA","h","NA","s","561","NA","NA","7040","NA","561","2","legacy","1024","2","48000","-16","experiment","SSSSS","1","odd","9433","NA","NA","45379","NA","24429","2387","NA","NA","46443","2392","NA","46545","47107","46440","46544","Flanker task","21","12272","22","yes","1024"
"95.652173913","95.652173913","558","558","black","legacy","legacy","legacy","0","Incongruent","uniform","1","undefined","1","h","0","0","0","22","0","22","0","22","0","22","0","0","22","22","22","22","09/04/18 22:38:10","1500","The main experiment item","yes","Flankertask.osexp","C:/Users/Brad/OneDrive/Desktop/Tarleton school stuff/Fall 2018/Advanced Quantitative Methods","no","mono","no","18","no","white","no","yes","768","legacy","22","22","C:/Users/Brad/OneDrive/Desktop/Tarleton school stuff/Fall 2018/Advanced Quantitative Methods/bh-subject-1.csv","legacy","Kafkaesque Koffka","3.2.5","0","h","NA","NA","h","NA","h","562","NA","NA","7040","NA","562","2","legacy","1024","2","48000","-16","experiment","SSHSS","1","odd","9433","NA","NA","47118","NA","24429","2387","NA","NA","48185","2392","NA","48287","48849","48183","48287","Flanker task","22","12834","23","yes","1024"
"95.8333333333","95.8333333333","557.041666667","557.041666667","black","legacy","legacy","legacy","0","Incongruent","uniform","1","undefined","1","s","0","0","0","23","0","23","0","23","0","23","0","0","23","23","23","23","09/04/18 22:38:10","1500","The main experiment item","yes","Flankertask.osexp","C:/Users/Brad/OneDrive/Desktop/Tarleton school stuff/Fall 2018/Advanced Quantitative Methods","no","mono","no","18","no","white","no","yes","768","legacy","23","23","C:/Users/Brad/OneDrive/Desktop/Tarleton school stuff/Fall 2018/Advanced Quantitative Methods/bh-subject-1.csv","legacy","Kafkaesque Koffka","3.2.5","0","s","NA","NA","h","NA","s","535","NA","NA","7040","NA","535","2","legacy","1024","2","48000","-16","experiment","HHSHH","1","odd","9433","NA","NA","48860","NA","24429","2387","NA","NA","49924","2392","NA","50026","50562","49922","50025","Flanker task","23","13369","24","yes","1024"
"96","96","556.64","556.64","black","legacy","legacy","legacy","0","Incongruent","uniform","1","undefined","1","h","0","0","0","24","0","24","0","24","0","24","0","0","24","24","24","24","09/04/18 22:38:10","1500","The main experiment item","yes","Flankertask.osexp","C:/Users/Brad/OneDrive/Desktop/Tarleton school stuff/Fall 2018/Advanced Quantitative Methods","no","mono","no","18","no","white","no","yes","768","legacy","24","24","C:/Users/Brad/OneDrive/Desktop/Tarleton school stuff/Fall 2018/Advanced Quantitative Methods/bh-subject-1.csv","legacy","Kafkaesque Koffka","3.2.5","0","h","NA","NA","h","NA","h","547","NA","NA","7040","NA","547","2","legacy","1024","2","48000","-16","experiment","SSHSS","1","odd","9433","NA","NA","50572","NA","24429","2387","NA","NA","51639","2392","NA","51740","52288","51636","51740","Flanker task","24","13916","25","yes","1024"
"96.1538461538","96.1538461538","553.846153846","553.846153846","black","legacy","legacy","legacy","0","Incongruent","uniform","1","undefined","1","s","0","0","0","25","0","25","0","25","0","25","0","0","25","25","25","25","09/04/18 22:38:10","1500","The main experiment item","yes","Flankertask.osexp","C:/Users/Brad/OneDrive/Desktop/Tarleton school stuff/Fall 2018/Advanced Quantitative Methods","no","mono","no","18","no","white","no","yes","768","legacy","25","25","C:/Users/Brad/OneDrive/Desktop/Tarleton school stuff/Fall 2018/Advanced Quantitative Methods/bh-subject-1.csv","legacy","Kafkaesque Koffka","3.2.5","0","s","NA","NA","h","NA","s","484","NA","NA","7040","NA","484","2","legacy","1024","2","48000","-16","experiment","HHSHH","1","odd","9433","NA","NA","52299","NA","24429","2387","NA","NA","53365","2392","NA","53466","53951","53362","53466","Flanker task","25","14400","26","yes","1024"
"96.2962962963","96.2962962963","552.518518519","552.518518519","black","legacy","legacy","legacy","0","Incongruent","uniform","1","undefined","1","h","0","0","0","26","0","26","0","26","0","26","0","0","26","26","26","26","09/04/18 22:38:10","1500","The main experiment item","yes","Flankertask.osexp","C:/Users/Brad/OneDrive/Desktop/Tarleton school stuff/Fall 2018/Advanced Quantitative Methods","no","mono","no","18","no","white","no","yes","768","legacy","26","26","C:/Users/Brad/OneDrive/Desktop/Tarleton school stuff/Fall 2018/Advanced Quantitative Methods/bh-subject-1.csv","legacy","Kafkaesque Koffka","3.2.5","0","h","NA","NA","h","NA","h","518","NA","NA","7040","NA","518","2","legacy","1024","2","48000","-16","experiment","SSHSS","1","odd","9433","NA","NA","53961","NA","24429","2387","NA","NA","55026","2392","NA","55127","55645","55023","55127","Flanker task","26","14918","27","yes","1024"
"96.4285714286","96.4285714286","555.821428571","555.821428571","black","legacy","legacy","legacy","0","Incongruent","uniform","1","undefined","1","s","0","0","0","27","0","27","0","27","0","27","0","0","27","27","27","27","09/04/18 22:38:10","1500","The main experiment item","yes","Flankertask.osexp","C:/Users/Brad/OneDrive/Desktop/Tarleton school stuff/Fall 2018/Advanced Quantitative Methods","no","mono","no","18","no","white","no","yes","768","legacy","27","27","C:/Users/Brad/OneDrive/Desktop/Tarleton school stuff/Fall 2018/Advanced Quantitative Methods/bh-subject-1.csv","legacy","Kafkaesque Koffka","3.2.5","0","s","NA","NA","h","NA","s","645","NA","NA","7040","NA","645","2","legacy","1024","2","48000","-16","experiment","HHSHH","1","odd","9433","NA","NA","55656","NA","24429","2387","NA","NA","56720","2392","NA","56822","57468","56718","56821","Flanker task","27","15563","28","yes","1024"
"96.5517241379","96.5517241379","558","558","black","legacy","legacy","legacy","0","Incongruent","uniform","1","undefined","1","h","0","0","0","28","0","28","0","28","0","28","0","0","28","28","28","28","09/04/18 22:38:10","1500","The main experiment item","yes","Flankertask.osexp","C:/Users/Brad/OneDrive/Desktop/Tarleton school stuff/Fall 2018/Advanced Quantitative Methods","no","mono","no","18","no","white","no","yes","768","legacy","28","28","C:/Users/Brad/OneDrive/Desktop/Tarleton school stuff/Fall 2018/Advanced Quantitative Methods/bh-subject-1.csv","legacy","Kafkaesque Koffka","3.2.5","0","h","NA","NA","h","NA","h","619","NA","NA","7040","NA","619","2","legacy","1024","2","48000","-16","experiment","SSHSS","1","odd","9433","NA","NA","57478","NA","24429","2387","NA","NA","58541","2392","NA","58643","59262","58538","58642","Flanker task","28","16182","29","yes","1024"
"96.6666666667","96.6666666667","564.6","564.6","black","legacy","legacy","legacy","0","Congruent","uniform","1","undefined","1","s","0","0","0","29","0","29","0","29","0","29","0","0","29","29","29","29","09/04/18 22:38:10","1500","The main experiment item","yes","Flankertask.osexp","C:/Users/Brad/OneDrive/Desktop/Tarleton school stuff/Fall 2018/Advanced Quantitative Methods","no","mono","no","18","no","white","no","yes","768","legacy","29","29","C:/Users/Brad/OneDrive/Desktop/Tarleton school stuff/Fall 2018/Advanced Quantitative Methods/bh-subject-1.csv","legacy","Kafkaesque Koffka","3.2.5","0","s","NA","NA","h","NA","s","756","NA","NA","7040","NA","756","2","legacy","1024","2","48000","-16","experiment","SSSSS","1","odd","9433","NA","NA","59273","NA","24429","2387","NA","NA","60337","2392","NA","60438","61195","60334","60438","Flanker task","29","16938","30","yes","1024"
"96.7741935484","96.7741935484","564.64516129","564.64516129","black","legacy","legacy","legacy","0","Incongruent","uniform","1","undefined","1","h","0","0","0","30","0","30","0","30","0","30","0","0","30","30","30","30","09/04/18 22:38:10","1500","The main experiment item","yes","Flankertask.osexp","C:/Users/Brad/OneDrive/Desktop/Tarleton school stuff/Fall 2018/Advanced Quantitative Methods","no","mono","no","18","no","white","no","yes","768","legacy","30","30","C:/Users/Brad/OneDrive/Desktop/Tarleton school stuff/Fall 2018/Advanced Quantitative Methods/bh-subject-1.csv","legacy","Kafkaesque Koffka","3.2.5","0","h","NA","NA","h","NA","h","566","NA","NA","7040","NA","566","2","legacy","1024","2","48000","-16","experiment","SSHSS","1","odd","9433","NA","NA","61205","NA","24429","2387","NA","NA","62269","2392","NA","62371","62938","62267","62370","Flanker task","30","17504","31","yes","1024"
"96.875","96.875","566.96875","566.96875","black","legacy","legacy","legacy","0","Incongruent","uniform","1","undefined","1","s","0","0","0","31","0","31","0","31","0","31","0","0","31","31","31","31","09/04/18 22:38:10","1500","The main experiment item","yes","Flankertask.osexp","C:/Users/Brad/OneDrive/Desktop/Tarleton school stuff/Fall 2018/Advanced Quantitative Methods","no","mono","no","18","no","white","no","yes","768","legacy","31","31","C:/Users/Brad/OneDrive/Desktop/Tarleton school stuff/Fall 2018/Advanced Quantitative Methods/bh-subject-1.csv","legacy","Kafkaesque Koffka","3.2.5","0","s","NA","NA","h","NA","s","639","NA","NA","7040","NA","639","2","legacy","1024","2","48000","-16","experiment","HHSHH","1","odd","9433","NA","NA","62949","NA","24429","2387","NA","NA","64012","2392","NA","64113","64753","64010","64113","Flanker task","31","18143","32","yes","1024"
"96.9696969697","96.9696969697","566","566","black","legacy","legacy","legacy","0","Congruent","uniform","1","undefined","1","h","0","0","0","32","0","32","0","32","0","32","0","0","32","32","32","32","09/04/18 22:38:10","1500","The main experiment item","yes","Flankertask.osexp","C:/Users/Brad/OneDrive/Desktop/Tarleton school stuff/Fall 2018/Advanced Quantitative Methods","no","mono","no","18","no","white","no","yes","768","legacy","32","32","C:/Users/Brad/OneDrive/Desktop/Tarleton school stuff/Fall 2018/Advanced Quantitative Methods/bh-subject-1.csv","legacy","Kafkaesque Koffka","3.2.5","0","h","NA","NA","h","NA","h","535","NA","NA","7040","NA","535","2","legacy","1024","2","48000","-16","experiment","HHHHH","1","odd","9433","NA","NA","64763","NA","24429","2387","NA","NA","65828","2392","NA","65929","66465","65826","65929","Flanker task","32","18678","33","yes","1024"
"97.0588235294","97.0588235294","564.294117647","564.294117647","black","legacy","legacy","legacy","0","Congruent","uniform","1","undefined","1","h","0","0","0","33","0","33","0","33","0","33","0","0","33","33","33","33","09/04/18 22:38:10","1500","The main experiment item","yes","Flankertask.osexp","C:/Users/Brad/OneDrive/Desktop/Tarleton school stuff/Fall 2018/Advanced Quantitative Methods","no","mono","no","18","no","white","no","yes","768","legacy","33","33","C:/Users/Brad/OneDrive/Desktop/Tarleton school stuff/Fall 2018/Advanced Quantitative Methods/bh-subject-1.csv","legacy","Kafkaesque Koffka","3.2.5","0","h","NA","NA","h","NA","h","508","NA","NA","7040","NA","508","2","legacy","1024","2","48000","-16","experiment","HHHHH","1","odd","9433","NA","NA","66476","NA","24429","2387","NA","NA","67541","2392","NA","67642","68150","67538","67642","Flanker task","33","19186","34","yes","1024"
"97.1428571429","97.1428571429","563.685714286","563.685714286","black","legacy","legacy","legacy","0","Incongruent","uniform","1","undefined","1","s","0","0","0","34","0","34","0","34","0","34","0","0","34","34","34","34","09/04/18 22:38:10","1500","The main experiment item","yes","Flankertask.osexp","C:/Users/Brad/OneDrive/Desktop/Tarleton school stuff/Fall 2018/Advanced Quantitative Methods","no","mono","no","18","no","white","no","yes","768","legacy","34","34","C:/Users/Brad/OneDrive/Desktop/Tarleton school stuff/Fall 2018/Advanced Quantitative Methods/bh-subject-1.csv","legacy","Kafkaesque Koffka","3.2.5","0","s","NA","NA","h","NA","s","543","NA","NA","7040","NA","543","2","legacy","1024","2","48000","-16","experiment","HHSHH","1","odd","9433","NA","NA","68161","NA","24429","2387","NA","NA","69225","2392","NA","69327","69870","69222","69326","Flanker task","34","19729","35","yes","1024"
"97.2222222222","97.2222222222","561.305555556","561.305555556","black","legacy","legacy","legacy","0","Incongruent","uniform","1","undefined","1","s","0","0","0","35","0","35","0","35","0","35","0","0","35","35","35","35","09/04/18 22:38:10","1500","The main experiment item","yes","Flankertask.osexp","C:/Users/Brad/OneDrive/Desktop/Tarleton school stuff/Fall 2018/Advanced Quantitative Methods","no","mono","no","18","no","white","no","yes","768","legacy","35","35","C:/Users/Brad/OneDrive/Desktop/Tarleton school stuff/Fall 2018/Advanced Quantitative Methods/bh-subject-1.csv","legacy","Kafkaesque Koffka","3.2.5","0","s","NA","NA","h","NA","s","478","NA","NA","7040","NA","478","2","legacy","1024","2","48000","-16","experiment","HHSHH","1","odd","9433","NA","NA","69882","NA","24429","2387","NA","NA","70946","2392","NA","71048","71526","70944","71048","Flanker task","35","20207","36","yes","1024"
"97.2972972973","97.2972972973","565.27027027","565.27027027","black","legacy","legacy","legacy","0","Congruent","uniform","1","undefined","1","s","0","0","0","36","0","36","0","36","0","36","0","0","36","36","36","36","09/04/18 22:38:10","1500","The main experiment item","yes","Flankertask.osexp","C:/Users/Brad/OneDrive/Desktop/Tarleton school stuff/Fall 2018/Advanced Quantitative Methods","no","mono","no","18","no","white","no","yes","768","legacy","36","36","C:/Users/Brad/OneDrive/Desktop/Tarleton school stuff/Fall 2018/Advanced Quantitative Methods/bh-subject-1.csv","legacy","Kafkaesque Koffka","3.2.5","0","s","NA","NA","h","NA","s","708","NA","NA","7040","NA","708","2","legacy","1024","2","48000","-16","experiment","SSSSS","1","odd","9433","NA","NA","71537","NA","24429","2387","NA","NA","72603","2392","NA","72704","73413","72600","72704","Flanker task","36","20915","37","yes","1024"
"97.3684210526","97.3684210526","564.157894737","564.157894737","black","legacy","legacy","legacy","0","Incongruent","uniform","1","undefined","1","s","0","0","0","37","0","37","0","37","0","37","0","0","37","37","37","37","09/04/18 22:38:10","1500","The main experiment item","yes","Flankertask.osexp","C:/Users/Brad/OneDrive/Desktop/Tarleton school stuff/Fall 2018/Advanced Quantitative Methods","no","mono","no","18","no","white","no","yes","768","legacy","37","37","C:/Users/Brad/OneDrive/Desktop/Tarleton school stuff/Fall 2018/Advanced Quantitative Methods/bh-subject-1.csv","legacy","Kafkaesque Koffka","3.2.5","0","s","NA","NA","h","NA","s","523","NA","NA","7040","NA","523","2","legacy","1024","2","48000","-16","experiment","HHSHH","1","odd","9433","NA","NA","73424","NA","24429","2387","NA","NA","74488","2392","NA","74590","75113","74486","74590","Flanker task","37","21438","38","yes","1024"
"97.4358974359","97.4358974359","561.512820513","561.512820513","black","legacy","legacy","legacy","0","Incongruent","uniform","1","undefined","1","s","0","0","0","38","0","38","0","38","0","38","0","0","38","38","38","38","09/04/18 22:38:10","1500","The main experiment item","yes","Flankertask.osexp","C:/Users/Brad/OneDrive/Desktop/Tarleton school stuff/Fall 2018/Advanced Quantitative Methods","no","mono","no","18","no","white","no","yes","768","legacy","38","38","C:/Users/Brad/OneDrive/Desktop/Tarleton school stuff/Fall 2018/Advanced Quantitative Methods/bh-subject-1.csv","legacy","Kafkaesque Koffka","3.2.5","0","s","NA","NA","h","NA","s","461","NA","NA","7040","NA","461","2","legacy","1024","2","48000","-16","experiment","HHSHH","1","odd","9433","NA","NA","75124","NA","24429","2387","NA","NA","76188","2392","NA","76289","76751","76186","76289","Flanker task","38","21899","39","yes","1024"
"97.5","97.5","559.7","559.7","black","legacy","legacy","legacy","0","Congruent","uniform","1","undefined","1","h","0","0","0","39","0","39","0","39","0","39","0","0","39","39","39","39","09/04/18 22:38:10","1500","The main experiment item","yes","Flankertask.osexp","C:/Users/Brad/OneDrive/Desktop/Tarleton school stuff/Fall 2018/Advanced Quantitative Methods","no","mono","no","18","no","white","no","yes","768","legacy","39","39","C:/Users/Brad/OneDrive/Desktop/Tarleton school stuff/Fall 2018/Advanced Quantitative Methods/bh-subject-1.csv","legacy","Kafkaesque Koffka","3.2.5","0","h","NA","NA","h","NA","h","489","NA","NA","7040","NA","489","2","legacy","1024","2","48000","-16","experiment","HHHHH","1","odd","9433","NA","NA","76755","NA","24429","2387","NA","NA","77819","2392","NA","77920","78410","77816","77920","Flanker task","39","22388","40","yes","1024"
"97.5609756098","97.5609756098","561.365853659","561.365853659","black","legacy","legacy","legacy","0","Incongruent","uniform","1","undefined","1","h","0","0","0","40","0","40","0","40","0","40","0","0","40","40","40","40","09/04/18 22:38:10","1500","The main experiment item","yes","Flankertask.osexp","C:/Users/Brad/OneDrive/Desktop/Tarleton school stuff/Fall 2018/Advanced Quantitative Methods","no","mono","no","18","no","white","no","yes","768","legacy","40","40","C:/Users/Brad/OneDrive/Desktop/Tarleton school stuff/Fall 2018/Advanced Quantitative Methods/bh-subject-1.csv","legacy","Kafkaesque Koffka","3.2.5","0","h","NA","NA","h","NA","h","628","NA","NA","7040","NA","628","2","legacy","1024","2","48000","-16","experiment","SSHSS","1","odd","9433","NA","NA","78420","NA","24429","2387","NA","NA","79485","2392","NA","79586","80214","79482","79586","Flanker task","40","23016","41","yes","1024"
"97.619047619","97.619047619","559.619047619","559.619047619","black","legacy","legacy","legacy","0","Congruent","uniform","1","undefined","1","s","0","0","0","41","0","41","0","41","0","41","0","0","41","41","41","41","09/04/18 22:38:10","1500","The main experiment item","yes","Flankertask.osexp","C:/Users/Brad/OneDrive/Desktop/Tarleton school stuff/Fall 2018/Advanced Quantitative Methods","no","mono","no","18","no","white","no","yes","768","legacy","41","41","C:/Users/Brad/OneDrive/Desktop/Tarleton school stuff/Fall 2018/Advanced Quantitative Methods/bh-subject-1.csv","legacy","Kafkaesque Koffka","3.2.5","0","s","NA","NA","h","NA","s","488","NA","NA","7040","NA","488","2","legacy","1024","2","48000","-16","experiment","SSSSS","1","odd","9433","NA","NA","80225","NA","24429","2387","NA","NA","81288","2392","NA","81389","81878","81285","81389","Flanker task","41","23504","42","yes","1024"
"97.6744186047","97.6744186047","556.581395349","556.581395349","black","legacy","legacy","legacy","0","Congruent","uniform","1","undefined","1","s","0","0","0","42","0","42","0","42","0","42","0","0","42","42","42","42","09/04/18 22:38:10","1500","The main experiment item","yes","Flankertask.osexp","C:/Users/Brad/OneDrive/Desktop/Tarleton school stuff/Fall 2018/Advanced Quantitative Methods","no","mono","no","18","no","white","no","yes","768","legacy","42","42","C:/Users/Brad/OneDrive/Desktop/Tarleton school stuff/Fall 2018/Advanced Quantitative Methods/bh-subject-1.csv","legacy","Kafkaesque Koffka","3.2.5","0","s","NA","NA","h","NA","s","429","NA","NA","7040","NA","429","2","legacy","1024","2","48000","-16","experiment","SSSSS","1","odd","9433","NA","NA","81890","NA","24429","2387","NA","NA","82993","2392","NA","83095","83525","82990","83095","Flanker task","42","23933","43","yes","1024"
"97.7272727273","97.7272727273","555.25","555.25","black","legacy","legacy","legacy","0","Congruent","uniform","1","undefined","1","h","0","0","0","43","0","43","0","43","0","43","0","0","43","43","43","43","09/04/18 22:38:10","1500","The main experiment item","yes","Flankertask.osexp","C:/Users/Brad/OneDrive/Desktop/Tarleton school stuff/Fall 2018/Advanced Quantitative Methods","no","mono","no","18","no","white","no","yes","768","legacy","43","43","C:/Users/Brad/OneDrive/Desktop/Tarleton school stuff/Fall 2018/Advanced Quantitative Methods/bh-subject-1.csv","legacy","Kafkaesque Koffka","3.2.5","0","h","NA","NA","h","NA","h","498","NA","NA","7040","NA","498","2","legacy","1024","2","48000","-16","experiment","HHHHH","1","odd","9433","NA","NA","83542","NA","24429","2387","NA","NA","84609","2392","NA","84710","85208","84607","84710","Flanker task","43","24431","44","yes","1024"
"97.7777777778","97.7777777778","553.977777778","553.977777778","black","legacy","legacy","legacy","0","Congruent","uniform","1","undefined","1","s","0","0","0","44","0","44","0","44","0","44","0","0","44","44","44","44","09/04/18 22:38:10","1500","The main experiment item","yes","Flankertask.osexp","C:/Users/Brad/OneDrive/Desktop/Tarleton school stuff/Fall 2018/Advanced Quantitative Methods","no","mono","no","18","no","white","no","yes","768","legacy","44","44","C:/Users/Brad/OneDrive/Desktop/Tarleton school stuff/Fall 2018/Advanced Quantitative Methods/bh-subject-1.csv","legacy","Kafkaesque Koffka","3.2.5","0","s","NA","NA","h","NA","s","498","NA","NA","7040","NA","498","2","legacy","1024","2","48000","-16","experiment","SSSSS","1","odd","9433","NA","NA","85219","NA","24429","2387","NA","NA","86283","2392","NA","86385","86884","86280","86384","Flanker task","44","24929","45","yes","1024"
"97.8260869565","97.8260869565","553.369565217","553.369565217","black","legacy","legacy","legacy","0","Incongruent","uniform","1","undefined","1","s","0","0","0","45","0","45","0","45","0","45","0","0","45","45","45","45","09/04/18 22:38:10","1500","The main experiment item","yes","Flankertask.osexp","C:/Users/Brad/OneDrive/Desktop/Tarleton school stuff/Fall 2018/Advanced Quantitative Methods","no","mono","no","18","no","white","no","yes","768","legacy","45","45","C:/Users/Brad/OneDrive/Desktop/Tarleton school stuff/Fall 2018/Advanced Quantitative Methods/bh-subject-1.csv","legacy","Kafkaesque Koffka","3.2.5","0","s","NA","NA","h","NA","s","526","NA","NA","7040","NA","526","2","legacy","1024","2","48000","-16","experiment","HHSHH","1","odd","9433","NA","NA","86889","NA","24429","2387","NA","NA","87955","2392","NA","88057","88584","87953","88057","Flanker task","45","25455","46","yes","1024"
"97.8723404255","97.8723404255","553.659574468","553.659574468","black","legacy","legacy","legacy","0","Incongruent","uniform","1","undefined","1","h","0","0","0","46","0","46","0","46","0","46","0","0","46","46","46","46","09/04/18 22:38:10","1500","The main experiment item","yes","Flankertask.osexp","C:/Users/Brad/OneDrive/Desktop/Tarleton school stuff/Fall 2018/Advanced Quantitative Methods","no","mono","no","18","no","white","no","yes","768","legacy","46","46","C:/Users/Brad/OneDrive/Desktop/Tarleton school stuff/Fall 2018/Advanced Quantitative Methods/bh-subject-1.csv","legacy","Kafkaesque Koffka","3.2.5","0","h","NA","NA","h","NA","h","567","NA","NA","7040","NA","567","2","legacy","1024","2","48000","-16","experiment","SSHSS","1","odd","9433","NA","NA","88595","NA","24429","2387","NA","NA","89660","2392","NA","89762","90329","89657","89762","Flanker task","46","26022","47","yes","1024"
"97.9166666667","97.9166666667","553.604166667","553.604166667","black","legacy","legacy","legacy","0","Congruent","uniform","1","undefined","1","s","0","0","0","47","0","47","0","47","0","47","0","0","47","47","47","47","09/04/18 22:38:10","1500","The main experiment item","yes","Flankertask.osexp","C:/Users/Brad/OneDrive/Desktop/Tarleton school stuff/Fall 2018/Advanced Quantitative Methods","no","mono","no","18","no","white","no","yes","768","legacy","47","47","C:/Users/Brad/OneDrive/Desktop/Tarleton school stuff/Fall 2018/Advanced Quantitative Methods/bh-subject-1.csv","legacy","Kafkaesque Koffka","3.2.5","0","s","NA","NA","h","NA","s","551","NA","NA","7040","NA","551","2","legacy","1024","2","48000","-16","experiment","SSSSS","1","odd","9433","NA","NA","90340","NA","24429","2387","NA","NA","91405","2392","NA","91507","92059","91402","91506","Flanker task","47","26573","48","yes","1024"
"97.9591836735","97.9591836735","551.979591837","551.979591837","black","legacy","legacy","legacy","0","Congruent","uniform","1","undefined","1","h","0","0","0","48","0","48","0","48","0","48","0","0","48","48","48","48","09/04/18 22:38:10","1500","The main experiment item","yes","Flankertask.osexp","C:/Users/Brad/OneDrive/Desktop/Tarleton school stuff/Fall 2018/Advanced Quantitative Methods","no","mono","no","18","no","white","no","yes","768","legacy","48","48","C:/Users/Brad/OneDrive/Desktop/Tarleton school stuff/Fall 2018/Advanced Quantitative Methods/bh-subject-1.csv","legacy","Kafkaesque Koffka","3.2.5","0","h","NA","NA","h","NA","h","474","NA","NA","7040","NA","474","2","legacy","1024","2","48000","-16","experiment","HHHHH","1","odd","9433","NA","NA","92069","NA","24429","2387","NA","NA","93133","2392","NA","93234","93709","93131","93234","Flanker task","48","27047","49","yes","1024"
"98","98","551.42","551.42","black","legacy","legacy","legacy","0","Congruent","uniform","1","undefined","1","h","0","0","0","49","0","49","0","49","0","49","0","0","49","49","49","49","09/04/18 22:38:10","1500","The main experiment item","yes","Flankertask.osexp","C:/Users/Brad/OneDrive/Desktop/Tarleton school stuff/Fall 2018/Advanced Quantitative Methods","no","mono","no","18","no","white","no","yes","768","legacy","49","49","C:/Users/Brad/OneDrive/Desktop/Tarleton school stuff/Fall 2018/Advanced Quantitative Methods/bh-subject-1.csv","legacy","Kafkaesque Koffka","3.2.5","0","h","NA","NA","h","NA","h","524","NA","NA","7040","NA","524","2","legacy","1024","2","48000","-16","experiment","HHHHH","1","odd","9433","NA","NA","93713","NA","24429","2387","NA","NA","94778","2392","NA","94879","95404","94775","94879","Flanker task","49","27571","50","yes","1024"
"98.0392156863","98.0392156863","549.431372549","549.431372549","black","legacy","legacy","legacy","0","Congruent","uniform","1","undefined","1","h","0","0","0","50","0","50","0","50","0","50","0","0","50","50","50","50","09/04/18 22:38:10","1500","The main experiment item","yes","Flankertask.osexp","C:/Users/Brad/OneDrive/Desktop/Tarleton school stuff/Fall 2018/Advanced Quantitative Methods","no","mono","no","18","no","white","no","yes","768","legacy","50","50","C:/Users/Brad/OneDrive/Desktop/Tarleton school stuff/Fall 2018/Advanced Quantitative Methods/bh-subject-1.csv","legacy","Kafkaesque Koffka","3.2.5","0","h","NA","NA","h","NA","h","450","NA","NA","7040","NA","450","2","legacy","1024","2","48000","-16","experiment","HHHHH","1","odd","9433","NA","NA","95415","NA","24429","2387","NA","NA","96480","2392","NA","96582","97033","96477","96581","Flanker task","50","28021","51","yes","1024"
"98.0769230769","98.0769230769","549.903846154","549.903846154","black","legacy","legacy","legacy","0","Incongruent","uniform","1","undefined","1","h","0","0","0","51","0","51","0","51","0","51","0","0","51","51","51","51","09/04/18 22:38:10","1500","The main experiment item","yes","Flankertask.osexp","C:/Users/Brad/OneDrive/Desktop/Tarleton school stuff/Fall 2018/Advanced Quantitative Methods","no","mono","no","18","no","white","no","yes","768","legacy","51","51","C:/Users/Brad/OneDrive/Desktop/Tarleton school stuff/Fall 2018/Advanced Quantitative Methods/bh-subject-1.csv","legacy","Kafkaesque Koffka","3.2.5","0","h","NA","NA","h","NA","h","574","NA","NA","7040","NA","574","2","legacy","1024","2","48000","-16","experiment","SSHSS","1","odd","9433","NA","NA","97043","NA","24429","2387","NA","NA","98107","2392","NA","98209","98784","98105","98208","Flanker task","51","28595","52","yes","1024"
"98.1132075472","98.1132075472","548.679245283","548.679245283","black","legacy","legacy","legacy","0","Congruent","uniform","1","undefined","1","s","0","0","0","52","0","52","0","52","0","52","0","0","52","52","52","52","09/04/18 22:38:10","1500","The main experiment item","yes","Flankertask.osexp","C:/Users/Brad/OneDrive/Desktop/Tarleton school stuff/Fall 2018/Advanced Quantitative Methods","no","mono","no","18","no","white","no","yes","768","legacy","52","52","C:/Users/Brad/OneDrive/Desktop/Tarleton school stuff/Fall 2018/Advanced Quantitative Methods/bh-subject-1.csv","legacy","Kafkaesque Koffka","3.2.5","0","s","NA","NA","h","NA","s","485","NA","NA","7040","NA","485","2","legacy","1024","2","48000","-16","experiment","SSSSS","1","odd","9433","NA","NA","98795","NA","24429","2387","NA","NA","99859","2392","NA","99961","100447","99857","99960","Flanker task","52","29080","53","yes","1024"
"98.1481481481","98.1481481481","547.240740741","547.240740741","black","legacy","legacy","legacy","0","Incongruent","uniform","1","undefined","1","s","0","0","0","53","0","53","0","53","0","53","0","0","53","53","53","53","09/04/18 22:38:10","1500","The main experiment item","yes","Flankertask.osexp","C:/Users/Brad/OneDrive/Desktop/Tarleton school stuff/Fall 2018/Advanced Quantitative Methods","no","mono","no","18","no","white","no","yes","768","legacy","53","53","C:/Users/Brad/OneDrive/Desktop/Tarleton school stuff/Fall 2018/Advanced Quantitative Methods/bh-subject-1.csv","legacy","Kafkaesque Koffka","3.2.5","0","s","NA","NA","h","NA","s","471","NA","NA","7040","NA","471","2","legacy","1024","2","48000","-16","experiment","HHSHH","1","odd","9433","NA","NA","100458","NA","24429","2387","NA","NA","101523","2392","NA","101625","102097","101520","101624","Flanker task","53","29551","54","yes","1024"
"98.1818181818","98.1818181818","545.818181818","545.818181818","black","legacy","legacy","legacy","0","Congruent","uniform","1","undefined","1","s","0","0","0","54","0","54","0","54","0","54","0","0","54","54","54","54","09/04/18 22:38:10","1500","The main experiment item","yes","Flankertask.osexp","C:/Users/Brad/OneDrive/Desktop/Tarleton school stuff/Fall 2018/Advanced Quantitative Methods","no","mono","no","18","no","white","no","yes","768","legacy","54","54","C:/Users/Brad/OneDrive/Desktop/Tarleton school stuff/Fall 2018/Advanced Quantitative Methods/bh-subject-1.csv","legacy","Kafkaesque Koffka","3.2.5","0","s","NA","NA","h","NA","s","469","NA","NA","7040","NA","469","2","legacy","1024","2","48000","-16","experiment","SSSSS","1","odd","9433","NA","NA","102107","NA","24429","2387","NA","NA","103171","2392","NA","103272","103742","103168","103272","Flanker task","54","30020","55","yes","1024"
"98.2142857143","98.2142857143","545.285714286","545.285714286","black","legacy","legacy","legacy","0","Congruent","uniform","1","undefined","1","h","0","0","0","55","0","55","0","55","0","55","0","0","55","55","55","55","09/04/18 22:38:10","1500","The main experiment item","yes","Flankertask.osexp","C:/Users/Brad/OneDrive/Desktop/Tarleton school stuff/Fall 2018/Advanced Quantitative Methods","no","mono","no","18","no","white","no","yes","768","legacy","55","55","C:/Users/Brad/OneDrive/Desktop/Tarleton school stuff/Fall 2018/Advanced Quantitative Methods/bh-subject-1.csv","legacy","Kafkaesque Koffka","3.2.5","0","h","NA","NA","h","NA","h","516","NA","NA","7040","NA","516","2","legacy","1024","2","48000","-16","experiment","HHHHH","1","odd","9433","NA","NA","103752","NA","24429","2387","NA","NA","104820","2392","NA","104922","105439","104814","104921","Flanker task","55","30536","56","yes","1024"
"98.2456140351","98.2456140351","542.649122807","542.649122807","black","legacy","legacy","legacy","0","Congruent","uniform","1","undefined","1","h","0","0","0","56","0","56","0","56","0","56","0","0","56","56","56","56","09/04/18 22:38:10","1500","The main experiment item","yes","Flankertask.osexp","C:/Users/Brad/OneDrive/Desktop/Tarleton school stuff/Fall 2018/Advanced Quantitative Methods","no","mono","no","18","no","white","no","yes","768","legacy","56","56","C:/Users/Brad/OneDrive/Desktop/Tarleton school stuff/Fall 2018/Advanced Quantitative Methods/bh-subject-1.csv","legacy","Kafkaesque Koffka","3.2.5","0","h","NA","NA","h","NA","h","395","NA","NA","7040","NA","395","2","legacy","1024","2","48000","-16","experiment","HHHHH","1","odd","9433","NA","NA","105449","NA","24429","2387","NA","NA","106511","2392","NA","106612","107007","106509","106612","Flanker task","56","30931","57","yes","1024"
"98.275862069","98.275862069","540.706896552","540.706896552","black","legacy","legacy","legacy","0","Congruent","uniform","1","undefined","1","h","0","0","0","57","0","57","0","57","0","57","0","0","57","57","57","57","09/04/18 22:38:10","1500","The main experiment item","yes","Flankertask.osexp","C:/Users/Brad/OneDrive/Desktop/Tarleton school stuff/Fall 2018/Advanced Quantitative Methods","no","mono","no","18","no","white","no","yes","768","legacy","57","57","C:/Users/Brad/OneDrive/Desktop/Tarleton school stuff/Fall 2018/Advanced Quantitative Methods/bh-subject-1.csv","legacy","Kafkaesque Koffka","3.2.5","0","h","NA","NA","h","NA","h","430","NA","NA","7040","NA","430","2","legacy","1024","2","48000","-16","experiment","HHHHH","1","odd","9433","NA","NA","107018","NA","24429","2387","NA","NA","108083","2392","NA","108184","108615","108080","108184","Flanker task","57","31361","58","yes","1024"
"98.3050847458","98.3050847458","540.711864407","540.711864407","black","legacy","legacy","legacy","0","Incongruent","uniform","1","undefined","1","h","0","0","0","58","0","58","0","58","0","58","0","0","58","58","58","58","09/04/18 22:38:10","1500","The main experiment item","yes","Flankertask.osexp","C:/Users/Brad/OneDrive/Desktop/Tarleton school stuff/Fall 2018/Advanced Quantitative Methods","no","mono","no","18","no","white","no","yes","768","legacy","58","58","C:/Users/Brad/OneDrive/Desktop/Tarleton school stuff/Fall 2018/Advanced Quantitative Methods/bh-subject-1.csv","legacy","Kafkaesque Koffka","3.2.5","0","h","NA","NA","h","NA","h","541","NA","NA","7040","NA","541","2","legacy","1024","2","48000","-16","experiment","SSHSS","1","odd","9433","NA","NA","108626","NA","24429","2387","NA","NA","109693","2392","NA","109794","110336","109690","109794","Flanker task","58","31902","59","yes","1024"
"98.3333333333","98.3333333333","540.016666667","540.016666667","black","legacy","legacy","legacy","0","Congruent","uniform","1","undefined","1","s","0","0","0","59","0","59","0","59","0","59","0","0","59","59","59","59","09/04/18 22:38:10","1500","The main experiment item","yes","Flankertask.osexp","C:/Users/Brad/OneDrive/Desktop/Tarleton school stuff/Fall 2018/Advanced Quantitative Methods","no","mono","no","18","no","white","no","yes","768","legacy","59","59","C:/Users/Brad/OneDrive/Desktop/Tarleton school stuff/Fall 2018/Advanced Quantitative Methods/bh-subject-1.csv","legacy","Kafkaesque Koffka","3.2.5","0","s","NA","NA","h","NA","s","499","NA","NA","7040","NA","499","2","legacy","1024","2","48000","-16","experiment","SSSSS","1","odd","9433","NA","NA","110347","NA","24429","2387","NA","NA","111411","2392","NA","111512","112011","111409","111512","Flanker task","59","32401","60","yes","1024"
"98.3606557377","98.3606557377","538.31147541","538.31147541","black","legacy","legacy","legacy","0","Congruent","uniform","1","undefined","1","s","0","0","0","60","0","60","0","60","0","60","0","0","60","60","60","60","09/04/18 22:38:10","1500","The main experiment item","yes","Flankertask.osexp","C:/Users/Brad/OneDrive/Desktop/Tarleton school stuff/Fall 2018/Advanced Quantitative Methods","no","mono","no","18","no","white","no","yes","768","legacy","60","60","C:/Users/Brad/OneDrive/Desktop/Tarleton school stuff/Fall 2018/Advanced Quantitative Methods/bh-subject-1.csv","legacy","Kafkaesque Koffka","3.2.5","0","s","NA","NA","h","NA","s","436","NA","NA","7040","NA","436","2","legacy","1024","2","48000","-16","experiment","SSSSS","1","odd","9433","NA","NA","112022","NA","24429","2387","NA","NA","113086","2392","NA","113188","113625","113084","113187","Flanker task","60","32837","61","yes","1024"
"96.7741935484","96.7741935484","536.467741935","536.467741935","black","legacy","legacy","legacy","0","Incongruent","uniform","0","undefined","0","h","0","0","0","61","0","61","0","61","0","61","0","0","61","61","61","61","09/04/18 22:38:10","1500","The main experiment item","yes","Flankertask.osexp","C:/Users/Brad/OneDrive/Desktop/Tarleton school stuff/Fall 2018/Advanced Quantitative Methods","no","mono","no","18","no","white","no","yes","768","legacy","61","61","C:/Users/Brad/OneDrive/Desktop/Tarleton school stuff/Fall 2018/Advanced Quantitative Methods/bh-subject-1.csv","legacy","Kafkaesque Koffka","3.2.5","0","s","NA","NA","h","NA","s","424","NA","NA","7040","NA","424","2","legacy","1024","2","48000","-16","experiment","SSHSS","1","odd","9433","NA","NA","113636","NA","24429","2387","NA","NA","114700","2392","NA","114802","115227","114697","114801","Flanker task","60","33261","62","yes","1024"
"96.8253968254","96.8253968254","538.603174603","538.603174603","black","legacy","legacy","legacy","0","Congruent","uniform","1","undefined","1","s","0","0","0","62","0","62","0","62","0","62","0","0","62","62","62","62","09/04/18 22:38:10","1500","The main experiment item","yes","Flankertask.osexp","C:/Users/Brad/OneDrive/Desktop/Tarleton school stuff/Fall 2018/Advanced Quantitative Methods","no","mono","no","18","no","white","no","yes","768","legacy","62","62","C:/Users/Brad/OneDrive/Desktop/Tarleton school stuff/Fall 2018/Advanced Quantitative Methods/bh-subject-1.csv","legacy","Kafkaesque Koffka","3.2.5","0","s","NA","NA","h","NA","s","671","NA","NA","7040","NA","671","2","legacy","1024","2","48000","-16","experiment","SSSSS","1","odd","9433","NA","NA","115739","NA","115238","2387","NA","NA","116803","2392","NA","116905","117577","116800","116905","Flanker task","61","33932","63","yes","1024"
"96.875","96.875","537.90625","537.90625","black","legacy","legacy","legacy","0","Congruent","uniform","1","undefined","1","s","0","0","0","63","0","63","0","63","0","63","0","0","63","63","63","63","09/04/18 22:38:10","1500","The main experiment item","yes","Flankertask.osexp","C:/Users/Brad/OneDrive/Desktop/Tarleton school stuff/Fall 2018/Advanced Quantitative Methods","no","mono","no","18","no","white","no","yes","768","legacy","63","63","C:/Users/Brad/OneDrive/Desktop/Tarleton school stuff/Fall 2018/Advanced Quantitative Methods/bh-subject-1.csv","legacy","Kafkaesque Koffka","3.2.5","0","s","NA","NA","h","NA","s","494","NA","NA","7040","NA","494","2","legacy","1024","2","48000","-16","experiment","SSSSS","1","odd","9433","NA","NA","117588","NA","115238","2387","NA","NA","118653","2392","NA","118755","119250","118651","118754","Flanker task","62","34426","64","yes","1024"
"96.9230769231","96.9230769231","537.753846154","537.753846154","black","legacy","legacy","legacy","0","Incongruent","uniform","1","undefined","1","h","0","0","0","64","0","64","0","64","0","64","0","0","64","64","64","64","09/04/18 22:38:10","1500","The main experiment item","yes","Flankertask.osexp","C:/Users/Brad/OneDrive/Desktop/Tarleton school stuff/Fall 2018/Advanced Quantitative Methods","no","mono","no","18","no","white","no","yes","768","legacy","64","64","C:/Users/Brad/OneDrive/Desktop/Tarleton school stuff/Fall 2018/Advanced Quantitative Methods/bh-subject-1.csv","legacy","Kafkaesque Koffka","3.2.5","0","h","NA","NA","h","NA","h","528","NA","NA","7040","NA","528","2","legacy","1024","2","48000","-16","experiment","SSHSS","1","odd","9433","NA","NA","119260","NA","115238","2387","NA","NA","120324","2392","NA","120426","120955","120321","120425","Flanker task","63","34954","65","yes","1024"
"96.9696969697","96.9696969697","537.151515152","537.151515152","black","legacy","legacy","legacy","0","Congruent","uniform","1","undefined","1","s","0","0","0","65","0","65","0","65","0","65","0","0","65","65","65","65","09/04/18 22:38:10","1500","The main experiment item","yes","Flankertask.osexp","C:/Users/Brad/OneDrive/Desktop/Tarleton school stuff/Fall 2018/Advanced Quantitative Methods","no","mono","no","18","no","white","no","yes","768","legacy","65","65","C:/Users/Brad/OneDrive/Desktop/Tarleton school stuff/Fall 2018/Advanced Quantitative Methods/bh-subject-1.csv","legacy","Kafkaesque Koffka","3.2.5","0","s","NA","NA","h","NA","s","498","NA","NA","7040","NA","498","2","legacy","1024","2","48000","-16","experiment","SSSSS","1","odd","9433","NA","NA","120959","NA","115238","2387","NA","NA","122023","2392","NA","122125","122624","122020","122124","Flanker task","64","35452","66","yes","1024"
"97.0149253731","97.0149253731","536.194029851","536.194029851","black","legacy","legacy","legacy","0","Congruent","uniform","1","undefined","1","h","0","0","0","66","0","66","0","66","0","66","0","0","66","66","66","66","09/04/18 22:38:10","1500","The main experiment item","yes","Flankertask.osexp","C:/Users/Brad/OneDrive/Desktop/Tarleton school stuff/Fall 2018/Advanced Quantitative Methods","no","mono","no","18","no","white","no","yes","768","legacy","66","66","C:/Users/Brad/OneDrive/Desktop/Tarleton school stuff/Fall 2018/Advanced Quantitative Methods/bh-subject-1.csv","legacy","Kafkaesque Koffka","3.2.5","0","h","NA","NA","h","NA","h","473","NA","NA","7040","NA","473","2","legacy","1024","2","48000","-16","experiment","HHHHH","1","odd","9433","NA","NA","122634","NA","115238","2387","NA","NA","123698","2392","NA","123800","124275","123695","123799","Flanker task","65","35925","67","yes","1024"
"97.0588235294","97.0588235294","536.088235294","536.088235294","black","legacy","legacy","legacy","0","Congruent","uniform","1","undefined","1","s","0","0","0","67","0","67","0","67","0","67","0","0","67","67","67","67","09/04/18 22:38:10","1500","The main experiment item","yes","Flankertask.osexp","C:/Users/Brad/OneDrive/Desktop/Tarleton school stuff/Fall 2018/Advanced Quantitative Methods","no","mono","no","18","no","white","no","yes","768","legacy","67","67","C:/Users/Brad/OneDrive/Desktop/Tarleton school stuff/Fall 2018/Advanced Quantitative Methods/bh-subject-1.csv","legacy","Kafkaesque Koffka","3.2.5","0","s","NA","NA","h","NA","s","529","NA","NA","7040","NA","529","2","legacy","1024","2","48000","-16","experiment","SSSSS","1","odd","9433","NA","NA","124286","NA","115238","2387","NA","NA","125355","2392","NA","125457","125986","125353","125456","Flanker task","66","36454","68","yes","1024"
"97.1014492754","97.1014492754","536.014492754","536.014492754","black","legacy","legacy","legacy","0","Congruent","uniform","1","undefined","1","h","0","0","0","68","0","68","0","68","0","68","0","0","68","68","68","68","09/04/18 22:38:10","1500","The main experiment item","yes","Flankertask.osexp","C:/Users/Brad/OneDrive/Desktop/Tarleton school stuff/Fall 2018/Advanced Quantitative Methods","no","mono","no","18","no","white","no","yes","768","legacy","68","68","C:/Users/Brad/OneDrive/Desktop/Tarleton school stuff/Fall 2018/Advanced Quantitative Methods/bh-subject-1.csv","legacy","Kafkaesque Koffka","3.2.5","0","h","NA","NA","h","NA","h","531","NA","NA","7040","NA","531","2","legacy","1024","2","48000","-16","experiment","HHHHH","1","odd","9433","NA","NA","125997","NA","115238","2387","NA","NA","127061","2392","NA","127162","127694","127059","127162","Flanker task","67","36985","69","yes","1024"
"97.1428571429","97.1428571429","537.5","537.5","black","legacy","legacy","legacy","0","Incongruent","uniform","1","undefined","1","s","0","0","0","69","0","69","0","69","0","69","0","0","69","69","69","69","09/04/18 22:38:10","1500","The main experiment item","yes","Flankertask.osexp","C:/Users/Brad/OneDrive/Desktop/Tarleton school stuff/Fall 2018/Advanced Quantitative Methods","no","mono","no","18","no","white","no","yes","768","legacy","69","69","C:/Users/Brad/OneDrive/Desktop/Tarleton school stuff/Fall 2018/Advanced Quantitative Methods/bh-subject-1.csv","legacy","Kafkaesque Koffka","3.2.5","0","s","NA","NA","h","NA","s","640","NA","NA","7040","NA","640","2","legacy","1024","2","48000","-16","experiment","HHSHH","1","odd","9433","NA","NA","127704","NA","115238","2387","NA","NA","128768","2392","NA","128869","129510","128766","128869","Flanker task","68","37625","70","yes","1024"
"97.1830985915","97.1830985915","539.112676056","539.112676056","black","legacy","legacy","legacy","0","Incongruent","uniform","1","undefined","1","h","0","0","0","70","0","70","0","70","0","70","0","0","70","70","70","70","09/04/18 22:38:10","1500","The main experiment item","yes","Flankertask.osexp","C:/Users/Brad/OneDrive/Desktop/Tarleton school stuff/Fall 2018/Advanced Quantitative Methods","no","mono","no","18","no","white","no","yes","768","legacy","70","70","C:/Users/Brad/OneDrive/Desktop/Tarleton school stuff/Fall 2018/Advanced Quantitative Methods/bh-subject-1.csv","legacy","Kafkaesque Koffka","3.2.5","0","h","NA","NA","h","NA","h","652","NA","NA","7040","NA","652","2","legacy","1024","2","48000","-16","experiment","SSHSS","1","odd","9433","NA","NA","129520","NA","115238","2387","NA","NA","130584","2392","NA","130685","131338","130581","130685","Flanker task","69","38277","71","yes","1024"
"97.2222222222","97.2222222222","538.597222222","538.597222222","black","legacy","legacy","legacy","0","Congruent","uniform","1","undefined","1","h","0","0","0","71","0","71","0","71","0","71","0","0","71","71","71","71","09/04/18 22:38:10","1500","The main experiment item","yes","Flankertask.osexp","C:/Users/Brad/OneDrive/Desktop/Tarleton school stuff/Fall 2018/Advanced Quantitative Methods","no","mono","no","18","no","white","no","yes","768","legacy","71","71","C:/Users/Brad/OneDrive/Desktop/Tarleton school stuff/Fall 2018/Advanced Quantitative Methods/bh-subject-1.csv","legacy","Kafkaesque Koffka","3.2.5","0","h","NA","NA","h","NA","h","502","NA","NA","7040","NA","502","2","legacy","1024","2","48000","-16","experiment","HHHHH","1","odd","9433","NA","NA","131351","NA","115238","2387","NA","NA","132415","2392","NA","132517","133020","132413","132517","Flanker task","70","38779","72","yes","1024"
"97.2602739726","97.2602739726","538.356164384","538.356164384","black","legacy","legacy","legacy","0","Congruent","uniform","1","undefined","1","s","0","0","0","72","0","72","0","72","0","72","0","0","72","72","72","72","09/04/18 22:38:10","1500","The main experiment item","yes","Flankertask.osexp","C:/Users/Brad/OneDrive/Desktop/Tarleton school stuff/Fall 2018/Advanced Quantitative Methods","no","mono","no","18","no","white","no","yes","768","legacy","72","72","C:/Users/Brad/OneDrive/Desktop/Tarleton school stuff/Fall 2018/Advanced Quantitative Methods/bh-subject-1.csv","legacy","Kafkaesque Koffka","3.2.5","0","s","NA","NA","h","NA","s","521","NA","NA","7040","NA","521","2","legacy","1024","2","48000","-16","experiment","SSSSS","1","odd","9433","NA","NA","133031","NA","115238","2387","NA","NA","134095","2392","NA","134197","134719","134093","134197","Flanker task","71","39300","73","yes","1024"
"97.2972972973","97.2972972973","541.054054054","541.054054054","black","legacy","legacy","legacy","0","Incongruent","uniform","1","undefined","1","s","0","0","0","73","0","73","0","73","0","73","0","0","73","73","73","73","09/04/18 22:38:10","1500","The main experiment item","yes","Flankertask.osexp","C:/Users/Brad/OneDrive/Desktop/Tarleton school stuff/Fall 2018/Advanced Quantitative Methods","no","mono","no","18","no","white","no","yes","768","legacy","73","73","C:/Users/Brad/OneDrive/Desktop/Tarleton school stuff/Fall 2018/Advanced Quantitative Methods/bh-subject-1.csv","legacy","Kafkaesque Koffka","3.2.5","0","s","NA","NA","h","NA","s","738","NA","NA","7040","NA","738","2","legacy","1024","2","48000","-16","experiment","HHSHH","1","odd","9433","NA","NA","134729","NA","115238","2387","NA","NA","135793","2392","NA","135894","136633","135790","135894","Flanker task","72","40038","74","yes","1024"
"97.3333333333","97.3333333333","540.026666667","540.026666667","black","legacy","legacy","legacy","0","Congruent","uniform","1","undefined","1","s","0","0","0","74","0","74","0","74","0","74","0","0","74","74","74","74","09/04/18 22:38:10","1500","The main experiment item","yes","Flankertask.osexp","C:/Users/Brad/OneDrive/Desktop/Tarleton school stuff/Fall 2018/Advanced Quantitative Methods","no","mono","no","18","no","white","no","yes","768","legacy","74","74","C:/Users/Brad/OneDrive/Desktop/Tarleton school stuff/Fall 2018/Advanced Quantitative Methods/bh-subject-1.csv","legacy","Kafkaesque Koffka","3.2.5","0","s","NA","NA","h","NA","s","464","NA","NA","7040","NA","464","2","legacy","1024","2","48000","-16","experiment","SSSSS","1","odd","9433","NA","NA","136644","NA","115238","2387","NA","NA","137708","2392","NA","137810","138275","137706","137809","Flanker task","73","40502","75","yes","1024"
"97.3684210526","97.3684210526","539.934210526","539.934210526","black","legacy","legacy","legacy","0","Incongruent","uniform","1","undefined","1","s","0","0","0","75","0","75","0","75","0","75","0","0","75","75","75","75","09/04/18 22:38:10","1500","The main experiment item","yes","Flankertask.osexp","C:/Users/Brad/OneDrive/Desktop/Tarleton school stuff/Fall 2018/Advanced Quantitative Methods","no","mono","no","18","no","white","no","yes","768","legacy","75","75","C:/Users/Brad/OneDrive/Desktop/Tarleton school stuff/Fall 2018/Advanced Quantitative Methods/bh-subject-1.csv","legacy","Kafkaesque Koffka","3.2.5","0","s","NA","NA","h","NA","s","533","NA","NA","7040","NA","533","2","legacy","1024","2","48000","-16","experiment","HHSHH","1","odd","9433","NA","NA","138285","NA","115238","2387","NA","NA","139349","2392","NA","139451","139985","139347","139450","Flanker task","74","41035","76","yes","1024"
"97.4025974026","97.4025974026","539.077922078","539.077922078","black","legacy","legacy","legacy","0","Incongruent","uniform","1","undefined","1","s","0","0","0","76","0","76","0","76","0","76","0","0","76","76","76","76","09/04/18 22:38:10","1500","The main experiment item","yes","Flankertask.osexp","C:/Users/Brad/OneDrive/Desktop/Tarleton school stuff/Fall 2018/Advanced Quantitative Methods","no","mono","no","18","no","white","no","yes","768","legacy","76","76","C:/Users/Brad/OneDrive/Desktop/Tarleton school stuff/Fall 2018/Advanced Quantitative Methods/bh-subject-1.csv","legacy","Kafkaesque Koffka","3.2.5","0","s","NA","NA","h","NA","s","474","NA","NA","7040","NA","474","2","legacy","1024","2","48000","-16","experiment","HHSHH","1","odd","9433","NA","NA","139991","NA","115238","2387","NA","NA","141059","2392","NA","141161","141636","141056","141160","Flanker task","75","41509","77","yes","1024"
"97.4358974359","97.4358974359","538.897435897","538.897435897","black","legacy","legacy","legacy","0","Congruent","uniform","1","undefined","1","h","0","0","0","77","0","77","0","77","0","77","0","0","77","77","77","77","09/04/18 22:38:10","1500","The main experiment item","yes","Flankertask.osexp","C:/Users/Brad/OneDrive/Desktop/Tarleton school stuff/Fall 2018/Advanced Quantitative Methods","no","mono","no","18","no","white","no","yes","768","legacy","77","77","C:/Users/Brad/OneDrive/Desktop/Tarleton school stuff/Fall 2018/Advanced Quantitative Methods/bh-subject-1.csv","legacy","Kafkaesque Koffka","3.2.5","0","h","NA","NA","h","NA","h","525","NA","NA","7040","NA","525","2","legacy","1024","2","48000","-16","experiment","HHHHH","1","odd","9433","NA","NA","141647","NA","115238","2387","NA","NA","142711","2392","NA","142813","143339","142709","142812","Flanker task","76","42034","78","yes","1024"
"97.4683544304","97.4683544304","540.46835443","540.46835443","black","legacy","legacy","legacy","0","Incongruent","uniform","1","undefined","1","s","0","0","0","78","0","78","0","78","0","78","0","0","78","78","78","78","09/04/18 22:38:10","1500","The main experiment item","yes","Flankertask.osexp","C:/Users/Brad/OneDrive/Desktop/Tarleton school stuff/Fall 2018/Advanced Quantitative Methods","no","mono","no","18","no","white","no","yes","768","legacy","78","78","C:/Users/Brad/OneDrive/Desktop/Tarleton school stuff/Fall 2018/Advanced Quantitative Methods/bh-subject-1.csv","legacy","Kafkaesque Koffka","3.2.5","0","s","NA","NA","h","NA","s","663","NA","NA","7040","NA","663","2","legacy","1024","2","48000","-16","experiment","HHSHH","1","odd","9433","NA","NA","143350","NA","115238","2387","NA","NA","144415","2392","NA","144517","145181","144412","144517","Flanker task","77","42697","79","yes","1024"
"97.5","97.5","540.8125","540.8125","black","legacy","legacy","legacy","0","Congruent","uniform","1","undefined","1","h","0","0","0","79","0","79","0","79","0","79","0","0","79","79","79","79","09/04/18 22:38:10","1500","The main experiment item","yes","Flankertask.osexp","C:/Users/Brad/OneDrive/Desktop/Tarleton school stuff/Fall 2018/Advanced Quantitative Methods","no","mono","no","18","no","white","no","yes","768","legacy","79","79","C:/Users/Brad/OneDrive/Desktop/Tarleton school stuff/Fall 2018/Advanced Quantitative Methods/bh-subject-1.csv","legacy","Kafkaesque Koffka","3.2.5","0","h","NA","NA","h","NA","h","568","NA","NA","7040","NA","568","2","legacy","1024","2","48000","-16","experiment","HHHHH","1","odd","9433","NA","NA","145192","NA","115238","2387","NA","NA","146256","2392","NA","146357","146926","146254","146357","Flanker task","78","43265","80","yes","1024"
"97.5308641975","97.5308641975","539.75308642","539.75308642","black","legacy","legacy","legacy","0","Congruent","uniform","1","undefined","1","h","0","0","0","80","0","80","0","80","0","80","0","0","80","80","80","80","09/04/18 22:38:10","600","The main experiment item","yes","Flankertask.osexp","C:/Users/Brad/OneDrive/Desktop/Tarleton school stuff/Fall 2018/Advanced Quantitative Methods","no","mono","no","18","no","white","no","yes","768","legacy","0","79","C:/Users/Brad/OneDrive/Desktop/Tarleton school stuff/Fall 2018/Advanced Quantitative Methods/bh-subject-1.csv","legacy","Kafkaesque Koffka","3.2.5","0","h","NA","NA","h","s","h","455","NA","NA","7040","13222","455","2","legacy","1024","2","48000","-16","experiment","HHHHH","1","odd","9433","161173","NA","146937","NA","115238","2387","NA","NA","161244","2392","147950","161346","161802","161242","161345","Flanker task","79","43720","81","yes","1024"
"97.5609756098","97.5609756098","538.780487805","538.780487805","black","legacy","legacy","legacy","0","Congruent","uniform","1","undefined","1","s","0","0","0","81","0","81","0","81","0","81","0","0","81","81","81","81","09/04/18 22:38:10","600","The main experiment item","yes","Flankertask.osexp","C:/Users/Brad/OneDrive/Desktop/Tarleton school stuff/Fall 2018/Advanced Quantitative Methods","no","mono","no","18","no","white","no","yes","768","legacy","1","79","C:/Users/Brad/OneDrive/Desktop/Tarleton school stuff/Fall 2018/Advanced Quantitative Methods/bh-subject-1.csv","legacy","Kafkaesque Koffka","3.2.5","0","s","NA","NA","h","s","s","460","NA","NA","7040","13222","460","2","legacy","1024","2","48000","-16","experiment","SSSSS","1","odd","9433","161173","NA","161813","NA","115238","2387","NA","NA","162879","2392","147950","162981","163442","162876","162980","Flanker task","80","44180","82","yes","1024"
"97.5903614458","97.5903614458","538.819277108","538.819277108","black","legacy","legacy","legacy","0","Incongruent","uniform","1","undefined","1","s","0","0","0","82","0","82","0","82","0","82","0","0","82","82","82","82","09/04/18 22:38:10","600","The main experiment item","yes","Flankertask.osexp","C:/Users/Brad/OneDrive/Desktop/Tarleton school stuff/Fall 2018/Advanced Quantitative Methods","no","mono","no","18","no","white","no","yes","768","legacy","2","79","C:/Users/Brad/OneDrive/Desktop/Tarleton school stuff/Fall 2018/Advanced Quantitative Methods/bh-subject-1.csv","legacy","Kafkaesque Koffka","3.2.5","0","s","NA","NA","h","s","s","542","NA","NA","7040","13222","542","2","legacy","1024","2","48000","-16","experiment","HHSHH","1","odd","9433","161173","NA","163453","NA","115238","2387","NA","NA","164520","2392","147950","164622","165165","164517","164621","Flanker task","81","44722","83","yes","1024"
"97.619047619","97.619047619","538.797619048","538.797619048","black","legacy","legacy","legacy","0","Incongruent","uniform","1","undefined","1","h","0","0","0","83","0","83","0","83","0","83","0","0","83","83","83","83","09/04/18 22:38:10","600","The main experiment item","yes","Flankertask.osexp","C:/Users/Brad/OneDrive/Desktop/Tarleton school stuff/Fall 2018/Advanced Quantitative Methods","no","mono","no","18","no","white","no","yes","768","legacy","3","79","C:/Users/Brad/OneDrive/Desktop/Tarleton school stuff/Fall 2018/Advanced Quantitative Methods/bh-subject-1.csv","legacy","Kafkaesque Koffka","3.2.5","0","h","NA","NA","h","s","h","537","NA","NA","7040","13222","537","2","legacy","1024","2","48000","-16","experiment","SSHSS","1","odd","9433","161173","NA","165176","NA","115238","2387","NA","NA","166241","2392","147950","166342","166880","166238","166342","Flanker task","82","45259","84","yes","1024"
"97.6470588235","97.6470588235","537.341176471","537.341176471","black","legacy","legacy","legacy","0","Incongruent","uniform","1","undefined","1","h","0","0","0","84","0","84","0","84","0","84","0","0","84","84","84","84","09/04/18 22:38:10","600","The main experiment item","yes","Flankertask.osexp","C:/Users/Brad/OneDrive/Desktop/Tarleton school stuff/Fall 2018/Advanced Quantitative Methods","no","mono","no","18","no","white","no","yes","768","legacy","4","79","C:/Users/Brad/OneDrive/Desktop/Tarleton school stuff/Fall 2018/Advanced Quantitative Methods/bh-subject-1.csv","legacy","Kafkaesque Koffka","3.2.5","0","h","NA","NA","h","s","h","415","NA","NA","7040","13222","415","2","legacy","1024","2","48000","-16","experiment","SSHSS","1","odd","9433","161173","NA","166884","NA","115238","2387","NA","NA","167950","2392","147950","168051","168467","167947","168051","Flanker task","83","45674","85","yes","1024"
"96.511627907","96.511627907","536.348837209","536.348837209","black","legacy","legacy","legacy","0","Incongruent","uniform","0","undefined","0","s","0","0","0","85","0","85","0","85","0","85","0","0","85","85","85","85","09/04/18 22:38:10","600","The main experiment item","yes","Flankertask.osexp","C:/Users/Brad/OneDrive/Desktop/Tarleton school stuff/Fall 2018/Advanced Quantitative Methods","no","mono","no","18","no","white","no","yes","768","legacy","5","79","C:/Users/Brad/OneDrive/Desktop/Tarleton school stuff/Fall 2018/Advanced Quantitative Methods/bh-subject-1.csv","legacy","Kafkaesque Koffka","3.2.5","0","h","NA","NA","h","s","h","452","NA","NA","7040","13222","452","2","legacy","1024","2","48000","-16","experiment","HHSHH","1","odd","9433","161173","NA","168479","NA","115238","2387","NA","NA","169544","2392","147950","169646","170099","169541","169645","Flanker task","83","46126","86","yes","1024"
"96.5517241379","96.5517241379","535.954022989","535.954022989","black","legacy","legacy","legacy","0","Congruent","uniform","1","undefined","1","s","0","0","0","86","0","86","0","86","0","86","0","0","86","86","86","86","09/04/18 22:38:10","600","The main experiment item","yes","Flankertask.osexp","C:/Users/Brad/OneDrive/Desktop/Tarleton school stuff/Fall 2018/Advanced Quantitative Methods","no","mono","no","18","no","white","no","yes","768","legacy","6","79","C:/Users/Brad/OneDrive/Desktop/Tarleton school stuff/Fall 2018/Advanced Quantitative Methods/bh-subject-1.csv","legacy","Kafkaesque Koffka","3.2.5","0","s","NA","NA","h","s","s","502","NA","NA","7040","13222","502","2","legacy","1024","2","48000","-16","experiment","SSSSS","1","odd","9433","161173","NA","170612","NA","170110","2387","NA","NA","171677","2392","147950","171779","172282","171674","171778","Flanker task","84","46628","87","yes","1024"
"96.5909090909","96.5909090909","534.965909091","534.965909091","black","legacy","legacy","legacy","0","Incongruent","uniform","1","undefined","1","s","0","0","0","87","0","87","0","87","0","87","0","0","87","87","87","87","09/04/18 22:38:10","600","The main experiment item","yes","Flankertask.osexp","C:/Users/Brad/OneDrive/Desktop/Tarleton school stuff/Fall 2018/Advanced Quantitative Methods","no","mono","no","18","no","white","no","yes","768","legacy","7","79","C:/Users/Brad/OneDrive/Desktop/Tarleton school stuff/Fall 2018/Advanced Quantitative Methods/bh-subject-1.csv","legacy","Kafkaesque Koffka","3.2.5","0","s","NA","NA","h","s","s","449","NA","NA","7040","13222","449","2","legacy","1024","2","48000","-16","experiment","HHSHH","1","odd","9433","161173","NA","172293","NA","170110","2387","NA","NA","173358","2392","147950","173460","173910","173356","173459","Flanker task","85","47077","88","yes","1024"
"96.6292134831","96.6292134831","533.943820225","533.943820225","black","legacy","legacy","legacy","0","Congruent","uniform","1","undefined","1","s","0","0","0","88","0","88","0","88","0","88","0","0","88","88","88","88","09/04/18 22:38:10","600","The main experiment item","yes","Flankertask.osexp","C:/Users/Brad/OneDrive/Desktop/Tarleton school stuff/Fall 2018/Advanced Quantitative Methods","no","mono","no","18","no","white","no","yes","768","legacy","8","79","C:/Users/Brad/OneDrive/Desktop/Tarleton school stuff/Fall 2018/Advanced Quantitative Methods/bh-subject-1.csv","legacy","Kafkaesque Koffka","3.2.5","0","s","NA","NA","h","s","s","444","NA","NA","7040","13222","444","2","legacy","1024","2","48000","-16","experiment","SSSSS","1","odd","9433","161173","NA","173921","NA","170110","2387","NA","NA","174984","2392","147950","175086","175531","174982","175086","Flanker task","86","47521","89","yes","1024"
"96.6666666667","96.6666666667","532.955555556","532.955555556","black","legacy","legacy","legacy","0","Incongruent","uniform","1","undefined","1","s","0","0","0","89","0","89","0","89","0","89","0","0","89","89","89","89","09/04/18 22:38:10","600","The main experiment item","yes","Flankertask.osexp","C:/Users/Brad/OneDrive/Desktop/Tarleton school stuff/Fall 2018/Advanced Quantitative Methods","no","mono","no","18","no","white","no","yes","768","legacy","9","79","C:/Users/Brad/OneDrive/Desktop/Tarleton school stuff/Fall 2018/Advanced Quantitative Methods/bh-subject-1.csv","legacy","Kafkaesque Koffka","3.2.5","0","s","NA","NA","h","s","s","445","NA","NA","7040","13222","445","2","legacy","1024","2","48000","-16","experiment","HHSHH","1","odd","9433","161173","NA","175541","NA","170110","2387","NA","NA","176610","2392","147950","176712","177158","176607","176711","Flanker task","87","47966","90","yes","1024"
"96.7032967033","96.7032967033","531.901098901","531.901098901","black","legacy","legacy","legacy","0","Congruent","uniform","1","undefined","1","s","0","0","0","90","0","90","0","90","0","90","0","0","90","90","90","90","09/04/18 22:38:10","600","The main experiment item","yes","Flankertask.osexp","C:/Users/Brad/OneDrive/Desktop/Tarleton school stuff/Fall 2018/Advanced Quantitative Methods","no","mono","no","18","no","white","no","yes","768","legacy","10","79","C:/Users/Brad/OneDrive/Desktop/Tarleton school stuff/Fall 2018/Advanced Quantitative Methods/bh-subject-1.csv","legacy","Kafkaesque Koffka","3.2.5","0","s","NA","NA","h","s","s","437","NA","NA","7040","13222","437","2","legacy","1024","2","48000","-16","experiment","SSSSS","1","odd","9433","161173","NA","177168","NA","170110","2387","NA","NA","178234","2392","147950","178335","178773","178231","178335","Flanker task","88","48403","91","yes","1024"
"96.7391304348","96.7391304348","531.75","531.75","black","legacy","legacy","legacy","0","Incongruent","uniform","1","undefined","1","h","0","0","0","91","0","91","0","91","0","91","0","0","91","91","91","91","09/04/18 22:38:10","600","The main experiment item","yes","Flankertask.osexp","C:/Users/Brad/OneDrive/Desktop/Tarleton school stuff/Fall 2018/Advanced Quantitative Methods","no","mono","no","18","no","white","no","yes","768","legacy","11","79","C:/Users/Brad/OneDrive/Desktop/Tarleton school stuff/Fall 2018/Advanced Quantitative Methods/bh-subject-1.csv","legacy","Kafkaesque Koffka","3.2.5","0","h","NA","NA","h","s","h","518","NA","NA","7040","13222","518","2","legacy","1024","2","48000","-16","experiment","SSHSS","1","odd","9433","161173","NA","178783","NA","170110","2387","NA","NA","179847","2392","147950","179948","180467","179845","179948","Flanker task","89","48921","92","yes","1024"
"96.7741935484","96.7741935484","531.580645161","531.580645161","black","legacy","legacy","legacy","0","Incongruent","uniform","1","undefined","1","s","0","0","0","92","0","92","0","92","0","92","0","0","92","92","92","92","09/04/18 22:38:10","600","The main experiment item","yes","Flankertask.osexp","C:/Users/Brad/OneDrive/Desktop/Tarleton school stuff/Fall 2018/Advanced Quantitative Methods","no","mono","no","18","no","white","no","yes","768","legacy","12","79","C:/Users/Brad/OneDrive/Desktop/Tarleton school stuff/Fall 2018/Advanced Quantitative Methods/bh-subject-1.csv","legacy","Kafkaesque Koffka","3.2.5","0","s","NA","NA","h","s","s","516","NA","NA","7040","13222","516","2","legacy","1024","2","48000","-16","experiment","HHSHH","1","odd","9433","161173","NA","180478","NA","170110","2387","NA","NA","181544","2392","147950","181646","182163","181541","181646","Flanker task","90","49437","93","yes","1024"
"96.8085106383","96.8085106383","531.723404255","531.723404255","black","legacy","legacy","legacy","0","Incongruent","uniform","1","undefined","1","h","0","0","0","93","0","93","0","93","0","93","0","0","93","93","93","93","09/04/18 22:38:10","600","The main experiment item","yes","Flankertask.osexp","C:/Users/Brad/OneDrive/Desktop/Tarleton school stuff/Fall 2018/Advanced Quantitative Methods","no","mono","no","18","no","white","no","yes","768","legacy","13","79","C:/Users/Brad/OneDrive/Desktop/Tarleton school stuff/Fall 2018/Advanced Quantitative Methods/bh-subject-1.csv","legacy","Kafkaesque Koffka","3.2.5","0","h","NA","NA","h","s","h","545","NA","NA","7040","13222","545","2","legacy","1024","2","48000","-16","experiment","SSHSS","1","odd","9433","161173","NA","182173","NA","170110","2387","NA","NA","183240","2392","147950","183342","183888","183237","183341","Flanker task","91","49982","94","yes","1024"
"96.8421052632","96.8421052632","531.031578947","531.031578947","black","legacy","legacy","legacy","0","Incongruent","uniform","1","undefined","1","h","0","0","0","94","0","94","0","94","0","94","0","0","94","94","94","94","09/04/18 22:38:10","600","The main experiment item","yes","Flankertask.osexp","C:/Users/Brad/OneDrive/Desktop/Tarleton school stuff/Fall 2018/Advanced Quantitative Methods","no","mono","no","18","no","white","no","yes","768","legacy","14","79","C:/Users/Brad/OneDrive/Desktop/Tarleton school stuff/Fall 2018/Advanced Quantitative Methods/bh-subject-1.csv","legacy","Kafkaesque Koffka","3.2.5","0","h","NA","NA","h","s","h","466","NA","NA","7040","13222","466","2","legacy","1024","2","48000","-16","experiment","SSHSS","1","odd","9433","161173","NA","183899","NA","170110","2387","NA","NA","184963","2392","147950","185065","185532","184960","185064","Flanker task","92","50448","95","yes","1024"
"96.875","96.875","530.53125","530.53125","black","legacy","legacy","legacy","0","Incongruent","uniform","1","undefined","1","h","0","0","0","95","0","95","0","95","0","95","0","0","95","95","95","95","09/04/18 22:38:10","600","The main experiment item","yes","Flankertask.osexp","C:/Users/Brad/OneDrive/Desktop/Tarleton school stuff/Fall 2018/Advanced Quantitative Methods","no","mono","no","18","no","white","no","yes","768","legacy","15","79","C:/Users/Brad/OneDrive/Desktop/Tarleton school stuff/Fall 2018/Advanced Quantitative Methods/bh-subject-1.csv","legacy","Kafkaesque Koffka","3.2.5","0","h","NA","NA","h","s","h","483","NA","NA","7040","13222","483","2","legacy","1024","2","48000","-16","experiment","SSHSS","1","odd","9433","161173","NA","185542","NA","170110","2387","NA","NA","186608","2392","147950","186711","187195","186606","186711","Flanker task","93","50931","96","yes","1024"
"96.9072164948","96.9072164948","530.360824742","530.360824742","black","legacy","legacy","legacy","0","Congruent","uniform","1","undefined","1","s","0","0","0","96","0","96","0","96","0","96","0","0","96","96","96","96","09/04/18 22:38:10","600","The main experiment item","yes","Flankertask.osexp","C:/Users/Brad/OneDrive/Desktop/Tarleton school stuff/Fall 2018/Advanced Quantitative Methods","no","mono","no","18","no","white","no","yes","768","legacy","16","79","C:/Users/Brad/OneDrive/Desktop/Tarleton school stuff/Fall 2018/Advanced Quantitative Methods/bh-subject-1.csv","legacy","Kafkaesque Koffka","3.2.5","0","s","NA","NA","h","s","s","514","NA","NA","7040","13222","514","2","legacy","1024","2","48000","-16","experiment","SSSSS","1","odd","9433","161173","NA","187205","NA","170110","2387","NA","NA","188268","2392","147950","188370","188885","188266","188369","Flanker task","94","51445","97","yes","1024"
"96.9387755102","96.9387755102","529.459183673","529.459183673","black","legacy","legacy","legacy","0","Incongruent","uniform","1","undefined","1","s","0","0","0","97","0","97","0","97","0","97","0","0","97","97","97","97","09/04/18 22:38:10","600","The main experiment item","yes","Flankertask.osexp","C:/Users/Brad/OneDrive/Desktop/Tarleton school stuff/Fall 2018/Advanced Quantitative Methods","no","mono","no","18","no","white","no","yes","768","legacy","17","79","C:/Users/Brad/OneDrive/Desktop/Tarleton school stuff/Fall 2018/Advanced Quantitative Methods/bh-subject-1.csv","legacy","Kafkaesque Koffka","3.2.5","0","s","NA","NA","h","s","s","442","NA","NA","7040","13222","442","2","legacy","1024","2","48000","-16","experiment","HHSHH","1","odd","9433","161173","NA","188896","NA","170110","2387","NA","NA","189959","2392","147950","190062","190505","189957","190061","Flanker task","95","51887","98","yes","1024"
"96.9696969697","96.9696969697","529.181818182","529.181818182","black","legacy","legacy","legacy","0","Congruent","uniform","1","undefined","1","h","0","0","0","98","0","98","0","98","0","98","0","0","98","98","98","98","09/04/18 22:38:10","600","The main experiment item","yes","Flankertask.osexp","C:/Users/Brad/OneDrive/Desktop/Tarleton school stuff/Fall 2018/Advanced Quantitative Methods","no","mono","no","18","no","white","no","yes","768","legacy","18","79","C:/Users/Brad/OneDrive/Desktop/Tarleton school stuff/Fall 2018/Advanced Quantitative Methods/bh-subject-1.csv","legacy","Kafkaesque Koffka","3.2.5","0","h","NA","NA","h","s","h","502","NA","NA","7040","13222","502","2","legacy","1024","2","48000","-16","experiment","HHHHH","1","odd","9433","161173","NA","190516","NA","170110","2387","NA","NA","191581","2392","147950","191682","192185","191578","191682","Flanker task","96","52389","99","yes","1024"
"97","97","529.02","529.02","black","legacy","legacy","legacy","0","Incongruent","uniform","1","undefined","1","h","0","0","0","99","0","99","0","99","0","99","0","0","99","99","99","99","09/04/18 22:38:10","600","The main experiment item","yes","Flankertask.osexp","C:/Users/Brad/OneDrive/Desktop/Tarleton school stuff/Fall 2018/Advanced Quantitative Methods","no","mono","no","18","no","white","no","yes","768","legacy","19","79","C:/Users/Brad/OneDrive/Desktop/Tarleton school stuff/Fall 2018/Advanced Quantitative Methods/bh-subject-1.csv","legacy","Kafkaesque Koffka","3.2.5","0","h","NA","NA","h","s","h","513","NA","NA","7040","13222","513","2","legacy","1024","2","48000","-16","experiment","SSHSS","1","odd","9433","161173","NA","192197","NA","170110","2387","NA","NA","193261","2392","147950","193362","193876","193258","193362","Flanker task","97","52902","100","yes","1024"
"97.0297029703","97.0297029703","528.831683168","528.831683168","black","legacy","legacy","legacy","0","Congruent","uniform","1","undefined","1","s","0","0","0","100","0","100","0","100","0","100","0","0","100","100","100","100","09/04/18 22:38:10","600","The main experiment item","yes","Flankertask.osexp","C:/Users/Brad/OneDrive/Desktop/Tarleton school stuff/Fall 2018/Advanced Quantitative Methods","no","mono","no","18","no","white","no","yes","768","legacy","20","79","C:/Users/Brad/OneDrive/Desktop/Tarleton school stuff/Fall 2018/Advanced Quantitative Methods/bh-subject-1.csv","legacy","Kafkaesque Koffka","3.2.5","0","s","NA","NA","h","s","s","510","NA","NA","7040","13222","510","2","legacy","1024","2","48000","-16","experiment","SSSSS","1","odd","9433","161173","NA","193886","NA","170110","2387","NA","NA","194950","2392","147950","195051","195562","194948","195051","Flanker task","98","53412","101","yes","1024"
"97.0588235294","97.0588235294","529.362745098","529.362745098","black","legacy","legacy","legacy","0","Congruent","uniform","1","undefined","1","h","0","0","0","101","0","101","0","101","0","101","0","0","101","101","101","101","09/04/18 22:38:10","600","The main experiment item","yes","Flankertask.osexp","C:/Users/Brad/OneDrive/Desktop/Tarleton school stuff/Fall 2018/Advanced Quantitative Methods","no","mono","no","18","no","white","no","yes","768","legacy","21","79","C:/Users/Brad/OneDrive/Desktop/Tarleton school stuff/Fall 2018/Advanced Quantitative Methods/bh-subject-1.csv","legacy","Kafkaesque Koffka","3.2.5","0","h","NA","NA","h","s","h","583","NA","NA","7040","13222","583","2","legacy","1024","2","48000","-16","experiment","HHHHH","1","odd","9433","161173","NA","195572","NA","170110","2387","NA","NA","196639","2392","147950","196740","197324","196636","196740","Flanker task","99","53995","102","yes","1024"
"97.0873786408","97.0873786408","528.941747573","528.941747573","black","legacy","legacy","legacy","0","Incongruent","uniform","1","undefined","1","h","0","0","0","102","0","102","0","102","0","102","0","0","102","102","102","102","09/04/18 22:38:10","600","The main experiment item","yes","Flankertask.osexp","C:/Users/Brad/OneDrive/Desktop/Tarleton school stuff/Fall 2018/Advanced Quantitative Methods","no","mono","no","18","no","white","no","yes","768","legacy","22","79","C:/Users/Brad/OneDrive/Desktop/Tarleton school stuff/Fall 2018/Advanced Quantitative Methods/bh-subject-1.csv","legacy","Kafkaesque Koffka","3.2.5","0","h","NA","NA","h","s","h","486","NA","NA","7040","13222","486","2","legacy","1024","2","48000","-16","experiment","SSHSS","1","odd","9433","161173","NA","197335","NA","170110","2387","NA","NA","198400","2392","147950","198501","198988","198397","198501","Flanker task","100","54481","103","yes","1024"
"97.1153846154","97.1153846154","528.586538462","528.586538462","black","legacy","legacy","legacy","0","Congruent","uniform","1","undefined","1","s","0","0","0","103","0","103","0","103","0","103","0","0","103","103","103","103","09/04/18 22:38:10","600","The main experiment item","yes","Flankertask.osexp","C:/Users/Brad/OneDrive/Desktop/Tarleton school stuff/Fall 2018/Advanced Quantitative Methods","no","mono","no","18","no","white","no","yes","768","legacy","23","79","C:/Users/Brad/OneDrive/Desktop/Tarleton school stuff/Fall 2018/Advanced Quantitative Methods/bh-subject-1.csv","legacy","Kafkaesque Koffka","3.2.5","0","s","NA","NA","h","s","s","492","NA","NA","7040","13222","492","2","legacy","1024","2","48000","-16","experiment","SSSSS","1","odd","9433","161173","NA","198998","NA","170110","2387","NA","NA","200062","2392","147950","200163","200656","200059","200163","Flanker task","101","54973","104","yes","1024"
"97.1428571429","97.1428571429","528.342857143","528.342857143","black","legacy","legacy","legacy","0","Incongruent","uniform","1","undefined","1","s","0","0","0","104","0","104","0","104","0","104","0","0","104","104","104","104","09/04/18 22:38:10","600","The main experiment item","yes","Flankertask.osexp","C:/Users/Brad/OneDrive/Desktop/Tarleton school stuff/Fall 2018/Advanced Quantitative Methods","no","mono","no","18","no","white","no","yes","768","legacy","24","79","C:/Users/Brad/OneDrive/Desktop/Tarleton school stuff/Fall 2018/Advanced Quantitative Methods/bh-subject-1.csv","legacy","Kafkaesque Koffka","3.2.5","0","s","NA","NA","h","s","s","503","NA","NA","7040","13222","503","2","legacy","1024","2","48000","-16","experiment","HHSHH","1","odd","9433","161173","NA","200667","NA","170110","2387","NA","NA","201732","2392","147950","201834","202338","201729","201834","Flanker task","102","55476","105","yes","1024"
"97.1698113208","97.1698113208","528.396226415","528.396226415","black","legacy","legacy","legacy","0","Congruent","uniform","1","undefined","1","h","0","0","0","105","0","105","0","105","0","105","0","0","105","105","105","105","09/04/18 22:38:10","600","The main experiment item","yes","Flankertask.osexp","C:/Users/Brad/OneDrive/Desktop/Tarleton school stuff/Fall 2018/Advanced Quantitative Methods","no","mono","no","18","no","white","no","yes","768","legacy","25","79","C:/Users/Brad/OneDrive/Desktop/Tarleton school stuff/Fall 2018/Advanced Quantitative Methods/bh-subject-1.csv","legacy","Kafkaesque Koffka","3.2.5","0","h","NA","NA","h","s","h","534","NA","NA","7040","13222","534","2","legacy","1024","2","48000","-16","experiment","HHHHH","1","odd","9433","161173","NA","202348","NA","170110","2387","NA","NA","203412","2392","147950","203513","204049","203409","203513","Flanker task","103","56010","106","yes","1024"
"97.1962616822","97.1962616822","528.093457944","528.093457944","black","legacy","legacy","legacy","0","Incongruent","uniform","1","undefined","1","s","0","0","0","106","0","106","0","106","0","106","0","0","106","106","106","106","09/04/18 22:38:10","600","The main experiment item","yes","Flankertask.osexp","C:/Users/Brad/OneDrive/Desktop/Tarleton school stuff/Fall 2018/Advanced Quantitative Methods","no","mono","no","18","no","white","no","yes","768","legacy","26","79","C:/Users/Brad/OneDrive/Desktop/Tarleton school stuff/Fall 2018/Advanced Quantitative Methods/bh-subject-1.csv","legacy","Kafkaesque Koffka","3.2.5","0","s","NA","NA","h","s","s","496","NA","NA","7040","13222","496","2","legacy","1024","2","48000","-16","experiment","HHSHH","1","odd","9433","161173","NA","204058","NA","170110","2387","NA","NA","205122","2392","147950","205224","205721","205119","205223","Flanker task","104","56506","107","yes","1024"
"97.2222222222","97.2222222222","527.546296296","527.546296296","black","legacy","legacy","legacy","0","Congruent","uniform","1","undefined","1","h","0","0","0","107","0","107","0","107","0","107","0","0","107","107","107","107","09/04/18 22:38:10","600","The main experiment item","yes","Flankertask.osexp","C:/Users/Brad/OneDrive/Desktop/Tarleton school stuff/Fall 2018/Advanced Quantitative Methods","no","mono","no","18","no","white","no","yes","768","legacy","27","79","C:/Users/Brad/OneDrive/Desktop/Tarleton school stuff/Fall 2018/Advanced Quantitative Methods/bh-subject-1.csv","legacy","Kafkaesque Koffka","3.2.5","0","h","NA","NA","h","s","h","469","NA","NA","7040","13222","469","2","legacy","1024","2","48000","-16","experiment","HHHHH","1","odd","9433","161173","NA","205731","NA","170110","2387","NA","NA","206798","2392","147950","206900","207371","206795","206899","Flanker task","105","56975","108","yes","1024"
