"acc","accuracy","average_response_time","avg_rt","background","bidi","canvas_backend","clock_backend","color_backend","compensation","condition","coordinates","correct","correct_Intructions1","correct_keyboardResponse","correct_response","count_Block1","count_Block2","count_Block3","count_ErrorFeedback","count_Fnish","count_ISI","count_Instructions2","count_Instructions3","count_Intructions1","count_Logger","count_Sequence","count_experiment","count_faster","count_fixation","count_keyboardResponse","count_stimulus","datetime","deadline","description","disable_garbage_collection","experiment_file","experiment_path","font_bold","font_family","font_italic","font_size","font_underline","foreground","form_clicks","fullscreen","height","keyboard_backend","live_row","live_row_Block1","logfile","mouse_backend","opensesame_codename","opensesame_version","repeat_cycle","response","response_Fnish","response_Instructions2","response_Instructions3","response_Intructions1","response_keyboardResponse","response_time","response_time_Fnish","response_time_Instructions2","response_time_Instructions3","response_time_Intructions1","response_time_keyboardResponse","round_decimals","sampler_backend","sound_buf_size","sound_channels","sound_freq","sound_sample_size","start","stimulus","subject_nr","subject_parity","time_Block1","time_Block2","time_Block3","time_ErrorFeedback","time_Fnish","time_ISI","time_Instructions2","time_Instructions3","time_Intructions1","time_Logger","time_Sequence","time_experiment","time_faster","time_fixation","time_keyboardResponse","time_stimulus","title","total_correct","total_response_time","total_responses","uniform_coordinates","width"
"0","0","1500","1500","black","no","legacy","legacy","legacy","0","incongurent","uniform","0","undefined","0","h","0","0","0","0","0","0","0","0","0","0","0","0","0","0","0","0","Sat Sep  8 15:11:08 2018","1500","The main experiment item","yes","Lab 1 PYSCH 5316.osexp","/Users/danieldalton/Desktop","no","mono","no","18","no","white","no","yes","768","legacy","0","0","/Users/danieldalton/Desktop/DD Subject 1.csv","legacy","Jazzy James","3.1.9","0","None","NA","NA","NA","h","None","1500","NA","NA","NA","37063","1500","2","legacy","1024","2","48000","-16","experiment","SSHSS","1","odd","38867","NA","NA","NA","NA","NA","NA","NA","1783","40532","38905","1750","NA","38917","39032","39032","Flanker Task","0","1500","1","yes","1024"
"50","50","1114","1114","black","no","legacy","legacy","legacy","0","incongurent","uniform","1","undefined","1","h","0","0","0","1","0","1","0","0","0","1","1","0","1","1","1","1","Sat Sep  8 15:11:08 2018","1500","The main experiment item","yes","Lab 1 PYSCH 5316.osexp","/Users/danieldalton/Desktop","no","mono","no","18","no","white","no","yes","768","legacy","1","1","/Users/danieldalton/Desktop/DD Subject 1.csv","legacy","Jazzy James","3.1.9","0","h","NA","NA","NA","h","h","728","NA","NA","NA","37063","728","2","legacy","1024","2","48000","-16","experiment","SSHSS","1","odd","38867","NA","NA","40551","NA","41069","NA","NA","1783","42968","42111","1750","NA","42123","42238","42238","Flanker Task","1","2228","2","yes","1024"
"66.6666666667","66.6666666667","969","969","black","no","legacy","legacy","legacy","0","incongurent","uniform","1","undefined","1","h","0","0","0","2","0","2","0","0","0","2","2","0","2","2","2","2","Sat Sep  8 15:11:08 2018","1500","The main experiment item","yes","Lab 1 PYSCH 5316.osexp","/Users/danieldalton/Desktop","no","mono","no","18","no","white","no","yes","768","legacy","2","2","/Users/danieldalton/Desktop/DD Subject 1.csv","legacy","Jazzy James","3.1.9","0","h","NA","NA","NA","h","h","679","NA","NA","NA","37063","679","2","legacy","1024","2","48000","-16","experiment","SSHSS","1","odd","38867","NA","NA","40551","NA","42983","NA","NA","1783","44824","44015","1750","NA","44027","44143","44143","Flanker Task","2","2907","3","yes","1024"
"75","75","919.75","919.75","black","no","legacy","legacy","legacy","0","incongruent","uniform","1","undefined","1","s","0","0","0","3","0","3","0","0","0","3","3","0","3","3","3","3","Sat Sep  8 15:11:08 2018","1500","The main experiment item","yes","Lab 1 PYSCH 5316.osexp","/Users/danieldalton/Desktop","no","mono","no","18","no","white","no","yes","768","legacy","3","3","/Users/danieldalton/Desktop/DD Subject 1.csv","legacy","Jazzy James","3.1.9","0","s","NA","NA","NA","h","s","772","NA","NA","NA","37063","772","2","legacy","1024","2","48000","-16","experiment","HHSHH","1","odd","38867","NA","NA","40551","NA","44838","NA","NA","1783","46774","45874","1750","NA","45885","46000","46000","Flanker Task","3","3679","4","yes","1024"
"80","80","870.2","870.2","black","no","legacy","legacy","legacy","0","congruent","uniform","1","undefined","1","h","0","0","0","4","0","4","0","0","0","4","4","0","4","4","4","4","Sat Sep  8 15:11:08 2018","1500","The main experiment item","yes","Lab 1 PYSCH 5316.osexp","/Users/danieldalton/Desktop","no","mono","no","18","no","white","no","yes","768","legacy","4","4","/Users/danieldalton/Desktop/DD Subject 1.csv","legacy","Jazzy James","3.1.9","0","h","NA","NA","NA","h","h","672","NA","NA","NA","37063","672","2","legacy","1024","2","48000","-16","experiment","HHHHH","1","odd","38867","NA","NA","40551","NA","46788","NA","NA","1783","48627","47826","1750","NA","47837","47953","47953","Flanker Task","4","4351","5","yes","1024"
"83.3333333333","83.3333333333","823.333333333","823.333333333","black","no","legacy","legacy","legacy","0","incongurent","uniform","1","undefined","1","h","0","0","0","5","0","5","0","0","0","5","5","0","5","5","5","5","Sat Sep  8 15:11:08 2018","1500","The main experiment item","yes","Lab 1 PYSCH 5316.osexp","/Users/danieldalton/Desktop","no","mono","no","18","no","white","no","yes","768","legacy","5","5","/Users/danieldalton/Desktop/DD Subject 1.csv","legacy","Jazzy James","3.1.9","0","h","NA","NA","NA","h","h","589","NA","NA","NA","37063","589","2","legacy","1024","2","48000","-16","experiment","SSHSS","1","odd","38867","NA","NA","40551","NA","48642","NA","NA","1783","50397","49676","1750","NA","49687","49806","49806","Flanker Task","5","4940","6","yes","1024"
"85.7142857143","85.7142857143","778.142857143","778.142857143","black","no","legacy","legacy","legacy","0","congruent","uniform","1","undefined","1","h","0","0","0","6","0","6","0","0","0","6","6","0","6","6","6","6","Sat Sep  8 15:11:08 2018","1500","The main experiment item","yes","Lab 1 PYSCH 5316.osexp","/Users/danieldalton/Desktop","no","mono","no","18","no","white","no","yes","768","legacy","6","6","/Users/danieldalton/Desktop/DD Subject 1.csv","legacy","Jazzy James","3.1.9","0","h","NA","NA","NA","h","h","507","NA","NA","NA","37063","507","2","legacy","1024","2","48000","-16","experiment","HHHHH","1","odd","38867","NA","NA","40551","NA","50418","NA","NA","1783","52092","51451","1750","NA","51462","51584","51584","Flanker Task","6","5447","7","yes","1024"
"87.5","87.5","730.5","730.5","black","no","legacy","legacy","legacy","0","congruent","uniform","1","undefined","1","h","0","0","0","7","0","7","0","0","0","7","7","0","7","7","7","7","Sat Sep  8 15:11:08 2018","1500","The main experiment item","yes","Lab 1 PYSCH 5316.osexp","/Users/danieldalton/Desktop","no","mono","no","18","no","white","no","yes","768","legacy","7","7","/Users/danieldalton/Desktop/DD Subject 1.csv","legacy","Jazzy James","3.1.9","0","h","NA","NA","NA","h","h","397","NA","NA","NA","37063","397","2","legacy","1024","2","48000","-16","experiment","HHHHH","1","odd","38867","NA","NA","40551","NA","52106","NA","NA","1783","53675","53149","1750","NA","53161","53276","53276","Flanker Task","7","5844","8","yes","1024"
"88.8888888889","88.8888888889","692.888888889","692.888888889","black","no","legacy","legacy","legacy","0","incongurent","uniform","1","undefined","1","h","0","0","0","8","0","8","0","0","0","8","8","0","8","8","8","8","Sat Sep  8 15:11:08 2018","1500","The main experiment item","yes","Lab 1 PYSCH 5316.osexp","/Users/danieldalton/Desktop","no","mono","no","18","no","white","no","yes","768","legacy","8","8","/Users/danieldalton/Desktop/DD Subject 1.csv","legacy","Jazzy James","3.1.9","0","h","NA","NA","NA","h","h","392","NA","NA","NA","37063","392","2","legacy","1024","2","48000","-16","experiment","SSHSS","1","odd","38867","NA","NA","40551","NA","53689","NA","NA","1783","55242","54724","1750","NA","54735","54849","54849","Flanker Task","8","6236","9","yes","1024"
"90","90","684.7","684.7","black","no","legacy","legacy","legacy","0","incongruent","uniform","1","undefined","1","s","0","0","0","9","0","9","0","0","0","9","9","0","9","9","9","9","Sat Sep  8 15:11:08 2018","1500","The main experiment item","yes","Lab 1 PYSCH 5316.osexp","/Users/danieldalton/Desktop","no","mono","no","18","no","white","no","yes","768","legacy","9","9","/Users/danieldalton/Desktop/DD Subject 1.csv","legacy","Jazzy James","3.1.9","0","s","NA","NA","NA","h","s","611","NA","NA","NA","37063","611","2","legacy","1024","2","48000","-16","experiment","HHSHH","1","odd","38867","NA","NA","40551","NA","55258","NA","NA","1783","57036","56295","1750","NA","56307","56423","56423","Flanker Task","9","6847","10","yes","1024"
"90.9090909091","90.9090909091","661.636363636","661.636363636","black","no","legacy","legacy","legacy","0","incongurent","uniform","1","undefined","1","h","0","0","0","10","0","10","0","0","0","10","10","0","10","10","10","10","Sat Sep  8 15:11:08 2018","1500","The main experiment item","yes","Lab 1 PYSCH 5316.osexp","/Users/danieldalton/Desktop","no","mono","no","18","no","white","no","yes","768","legacy","10","10","/Users/danieldalton/Desktop/DD Subject 1.csv","legacy","Jazzy James","3.1.9","0","h","NA","NA","NA","h","h","431","NA","NA","NA","37063","431","2","legacy","1024","2","48000","-16","experiment","SSHSS","1","odd","38867","NA","NA","40551","NA","57051","NA","NA","1783","58651","58089","1750","NA","58100","58218","58218","Flanker Task","10","7278","11","yes","1024"
"91.6666666667","91.6666666667","657.25","657.25","black","no","legacy","legacy","legacy","0","congruent","uniform","1","undefined","1","h","0","0","0","11","0","11","0","0","0","11","11","0","11","11","11","11","Sat Sep  8 15:11:08 2018","1500","The main experiment item","yes","Lab 1 PYSCH 5316.osexp","/Users/danieldalton/Desktop","no","mono","no","18","no","white","no","yes","768","legacy","11","11","/Users/danieldalton/Desktop/DD Subject 1.csv","legacy","Jazzy James","3.1.9","0","h","NA","NA","NA","h","h","609","NA","NA","NA","37063","609","2","legacy","1024","2","48000","-16","experiment","HHHHH","1","odd","38867","NA","NA","40551","NA","58665","NA","NA","1783","60437","59699","1750","NA","59710","59826","59826","Flanker Task","11","7887","12","yes","1024"
"92.3076923077","92.3076923077","638.846153846","638.846153846","black","no","legacy","legacy","legacy","0","conguent","uniform","1","undefined","1","s","0","0","0","12","0","12","0","0","0","12","12","0","12","12","12","12","Sat Sep  8 15:11:08 2018","1500","The main experiment item","yes","Lab 1 PYSCH 5316.osexp","/Users/danieldalton/Desktop","no","mono","no","18","no","white","no","yes","768","legacy","12","12","/Users/danieldalton/Desktop/DD Subject 1.csv","legacy","Jazzy James","3.1.9","0","s","NA","NA","NA","h","s","418","NA","NA","NA","37063","418","2","legacy","1024","2","48000","-16","experiment","SSSSS","1","odd","38867","NA","NA","40551","NA","60451","NA","NA","1783","62032","61485","1750","NA","61496","61612","61612","Flanker Task","12","8305","13","yes","1024"
"92.8571428571","92.8571428571","617.071428571","617.071428571","black","no","legacy","legacy","legacy","0","conguent","uniform","1","undefined","1","s","0","0","0","13","0","13","0","0","0","13","13","0","13","13","13","13","Sat Sep  8 15:11:08 2018","1500","The main experiment item","yes","Lab 1 PYSCH 5316.osexp","/Users/danieldalton/Desktop","no","mono","no","18","no","white","no","yes","768","legacy","13","13","/Users/danieldalton/Desktop/DD Subject 1.csv","legacy","Jazzy James","3.1.9","0","s","NA","NA","NA","h","s","334","NA","NA","NA","37063","334","2","legacy","1024","2","48000","-16","experiment","SSSSS","1","odd","38867","NA","NA","40551","NA","62046","NA","NA","1783","63545","63082","1750","NA","63093","63209","63209","Flanker Task","13","8639","14","yes","1024"
"93.3333333333","93.3333333333","612","612","black","no","legacy","legacy","legacy","0","congruent","uniform","1","undefined","1","h","0","0","0","14","0","14","0","0","0","14","14","0","14","14","14","14","Sat Sep  8 15:11:08 2018","1500","The main experiment item","yes","Lab 1 PYSCH 5316.osexp","/Users/danieldalton/Desktop","no","mono","no","18","no","white","no","yes","768","legacy","14","14","/Users/danieldalton/Desktop/DD Subject 1.csv","legacy","Jazzy James","3.1.9","0","h","NA","NA","NA","h","h","541","NA","NA","NA","37063","541","2","legacy","1024","2","48000","-16","experiment","HHHHH","1","odd","38867","NA","NA","40551","NA","63559","NA","NA","1783","65265","64592","1750","NA","64603","64722","64722","Flanker Task","14","9180","15","yes","1024"
"87.5","87.5","602.6875","602.6875","black","no","legacy","legacy","legacy","0","incongurent","uniform","0","undefined","0","h","0","0","0","15","0","15","0","0","0","15","15","0","15","15","15","15","Sat Sep  8 15:11:08 2018","1500","The main experiment item","yes","Lab 1 PYSCH 5316.osexp","/Users/danieldalton/Desktop","no","mono","no","18","no","white","no","yes","768","legacy","15","15","/Users/danieldalton/Desktop/DD Subject 1.csv","legacy","Jazzy James","3.1.9","0","s","NA","NA","NA","h","s","463","NA","NA","NA","37063","463","2","legacy","1024","2","48000","-16","experiment","SSHSS","1","odd","38867","NA","NA","40551","NA","65279","NA","NA","1783","66908","66316","1750","NA","66328","66443","66443","Flanker Task","14","9643","16","yes","1024"
"88.2352941176","88.2352941176","592.058823529","592.058823529","black","no","legacy","legacy","legacy","0","incongurent","uniform","1","undefined","1","h","0","0","0","16","0","16","0","0","0","16","16","0","16","16","16","16","Sat Sep  8 15:11:08 2018","1500","The main experiment item","yes","Lab 1 PYSCH 5316.osexp","/Users/danieldalton/Desktop","no","mono","no","18","no","white","no","yes","768","legacy","16","16","/Users/danieldalton/Desktop/DD Subject 1.csv","legacy","Jazzy James","3.1.9","0","h","NA","NA","NA","h","h","422","NA","NA","NA","37063","422","2","legacy","1024","2","48000","-16","experiment","SSHSS","1","odd","38867","NA","NA","66922","NA","67440","NA","NA","1783","69026","68474","1750","NA","68485","68602","68601","Flanker Task","15","10065","17","yes","1024"
"83.3333333333","83.3333333333","576.388888889","576.388888889","black","no","legacy","legacy","legacy","0","incongruent","uniform","0","undefined","0","s","0","0","0","17","0","17","0","0","0","17","17","0","17","17","17","17","Sat Sep  8 15:11:08 2018","1500","The main experiment item","yes","Lab 1 PYSCH 5316.osexp","/Users/danieldalton/Desktop","no","mono","no","18","no","white","no","yes","768","legacy","17","17","/Users/danieldalton/Desktop/DD Subject 1.csv","legacy","Jazzy James","3.1.9","0","h","NA","NA","NA","h","h","310","NA","NA","NA","37063","310","2","legacy","1024","2","48000","-16","experiment","HHSHH","1","odd","38867","NA","NA","66922","NA","69040","NA","NA","1783","70512","70074","1750","NA","70085","70200","70200","Flanker Task","15","10375","18","yes","1024"
"84.2105263158","84.2105263158","580.263157895","580.263157895","black","no","legacy","legacy","legacy","0","congruent","uniform","1","undefined","1","h","0","0","0","18","0","18","0","0","0","18","18","0","18","18","18","18","Sat Sep  8 15:11:08 2018","1500","The main experiment item","yes","Lab 1 PYSCH 5316.osexp","/Users/danieldalton/Desktop","no","mono","no","18","no","white","no","yes","768","legacy","18","18","/Users/danieldalton/Desktop/DD Subject 1.csv","legacy","Jazzy James","3.1.9","0","h","NA","NA","NA","h","h","650","NA","NA","NA","37063","650","2","legacy","1024","2","48000","-16","experiment","HHHHH","1","odd","38867","NA","NA","70526","NA","71038","NA","NA","1783","72853","72075","1750","NA","72086","72201","72201","Flanker Task","16","11025","19","yes","1024"
"80","80","568.6","568.6","black","no","legacy","legacy","legacy","0","incongurent","uniform","0","undefined","0","h","0","0","0","19","0","19","0","0","0","19","19","0","19","19","19","19","Sat Sep  8 15:11:08 2018","1500","The main experiment item","yes","Lab 1 PYSCH 5316.osexp","/Users/danieldalton/Desktop","no","mono","no","18","no","white","no","yes","768","legacy","19","19","/Users/danieldalton/Desktop/DD Subject 1.csv","legacy","Jazzy James","3.1.9","0","s","NA","NA","NA","h","s","347","NA","NA","NA","37063","347","2","legacy","1024","2","48000","-16","experiment","SSHSS","1","odd","38867","NA","NA","70526","NA","72866","NA","NA","1783","74375","73900","1750","NA","73911","74026","74026","Flanker Task","16","11372","20","yes","1024"
"80.9523809524","80.9523809524","563.523809524","563.523809524","black","no","legacy","legacy","legacy","0","incongurent","uniform","1","undefined","1","h","0","0","0","20","0","20","0","0","0","20","20","0","20","20","20","20","Sat Sep  8 15:11:08 2018","1500","The main experiment item","yes","Lab 1 PYSCH 5316.osexp","/Users/danieldalton/Desktop","no","mono","no","18","no","white","no","yes","768","legacy","20","20","/Users/danieldalton/Desktop/DD Subject 1.csv","legacy","Jazzy James","3.1.9","0","h","NA","NA","NA","h","h","462","NA","NA","NA","37063","462","2","legacy","1024","2","48000","-16","experiment","SSHSS","1","odd","38867","NA","NA","74391","NA","74902","NA","NA","1783","76532","75940","1750","NA","75952","76068","76067","Flanker Task","17","11834","21","yes","1024"
"81.8181818182","81.8181818182","555.954545455","555.954545455","black","no","legacy","legacy","legacy","0","conguent","uniform","1","undefined","1","s","0","0","0","21","0","21","0","0","0","21","21","0","21","21","21","21","Sat Sep  8 15:11:08 2018","1500","The main experiment item","yes","Lab 1 PYSCH 5316.osexp","/Users/danieldalton/Desktop","no","mono","no","18","no","white","no","yes","768","legacy","21","21","/Users/danieldalton/Desktop/DD Subject 1.csv","legacy","Jazzy James","3.1.9","0","s","NA","NA","NA","h","s","397","NA","NA","NA","37063","397","2","legacy","1024","2","48000","-16","experiment","SSSSS","1","odd","38867","NA","NA","74391","NA","76547","NA","NA","1783","78113","77585","1750","NA","77597","77714","77714","Flanker Task","18","12231","22","yes","1024"
"82.6086956522","82.6086956522","554.391304348","554.391304348","black","no","legacy","legacy","legacy","0","congruent","uniform","1","undefined","1","h","0","0","0","22","0","22","0","0","0","22","22","0","22","22","22","22","Sat Sep  8 15:11:08 2018","1500","The main experiment item","yes","Lab 1 PYSCH 5316.osexp","/Users/danieldalton/Desktop","no","mono","no","18","no","white","no","yes","768","legacy","22","22","/Users/danieldalton/Desktop/DD Subject 1.csv","legacy","Jazzy James","3.1.9","0","h","NA","NA","NA","h","h","520","NA","NA","NA","37063","520","2","legacy","1024","2","48000","-16","experiment","HHHHH","1","odd","38867","NA","NA","74391","NA","78128","NA","NA","1783","79815","79162","1750","NA","79173","79293","79293","Flanker Task","19","12751","23","yes","1024"
"83.3333333333","83.3333333333","547.708333333","547.708333333","black","no","legacy","legacy","legacy","0","conguent","uniform","1","undefined","1","s","0","0","0","23","0","23","0","0","0","23","23","0","23","23","23","23","Sat Sep  8 15:11:08 2018","1500","The main experiment item","yes","Lab 1 PYSCH 5316.osexp","/Users/danieldalton/Desktop","no","mono","no","18","no","white","no","yes","768","legacy","23","23","/Users/danieldalton/Desktop/DD Subject 1.csv","legacy","Jazzy James","3.1.9","0","s","NA","NA","NA","h","s","394","NA","NA","NA","37063","394","2","legacy","1024","2","48000","-16","experiment","SSSSS","1","odd","38867","NA","NA","74391","NA","79829","NA","NA","1783","81389","80866","1750","NA","80877","80992","80992","Flanker Task","20","13145","24","yes","1024"
"84","84","549.44","549.44","black","no","legacy","legacy","legacy","0","congruent","uniform","1","undefined","1","h","0","0","0","24","0","24","0","0","0","24","24","0","24","24","24","24","Sat Sep  8 15:11:08 2018","1500","The main experiment item","yes","Lab 1 PYSCH 5316.osexp","/Users/danieldalton/Desktop","no","mono","no","18","no","white","no","yes","768","legacy","24","24","/Users/danieldalton/Desktop/DD Subject 1.csv","legacy","Jazzy James","3.1.9","0","h","NA","NA","NA","h","h","591","NA","NA","NA","37063","591","2","legacy","1024","2","48000","-16","experiment","HHHHH","1","odd","38867","NA","NA","74391","NA","81405","NA","NA","1783","83159","82440","1750","NA","82451","82566","82566","Flanker Task","21","13736","25","yes","1024"
"84.6153846154","84.6153846154","542.230769231","542.230769231","black","no","legacy","legacy","legacy","0","conguent","uniform","1","undefined","1","s","0","0","0","25","0","25","0","0","0","25","25","0","25","25","25","25","Sat Sep  8 15:11:08 2018","1500","The main experiment item","yes","Lab 1 PYSCH 5316.osexp","/Users/danieldalton/Desktop","no","mono","no","18","no","white","no","yes","768","legacy","25","25","/Users/danieldalton/Desktop/DD Subject 1.csv","legacy","Jazzy James","3.1.9","0","s","NA","NA","NA","h","s","362","NA","NA","NA","37063","362","2","legacy","1024","2","48000","-16","experiment","SSSSS","1","odd","38867","NA","NA","74391","NA","83173","NA","NA","1783","84703","84210","1750","NA","84221","84339","84339","Flanker Task","22","14098","26","yes","1024"
"85.1851851852","85.1851851852","549.888888889","549.888888889","black","no","legacy","legacy","legacy","0","conguent","uniform","1","undefined","1","s","0","0","0","26","0","26","0","0","0","26","26","0","26","26","26","26","Sat Sep  8 15:11:08 2018","1500","The main experiment item","yes","Lab 1 PYSCH 5316.osexp","/Users/danieldalton/Desktop","no","mono","no","18","no","white","no","yes","768","legacy","26","26","/Users/danieldalton/Desktop/DD Subject 1.csv","legacy","Jazzy James","3.1.9","0","s","NA","NA","NA","h","s","749","NA","NA","NA","37063","749","2","legacy","1024","2","48000","-16","experiment","SSSSS","1","odd","38867","NA","NA","74391","NA","84717","NA","NA","1783","86626","85751","1750","NA","85763","85874","85874","Flanker Task","23","14847","27","yes","1024"
"85.7142857143","85.7142857143","554.392857143","554.392857143","black","no","legacy","legacy","legacy","0","incongurent","uniform","1","undefined","1","h","0","0","0","27","0","27","0","0","0","27","27","0","27","27","27","27","Sat Sep  8 15:11:08 2018","1500","The main experiment item","yes","Lab 1 PYSCH 5316.osexp","/Users/danieldalton/Desktop","no","mono","no","18","no","white","no","yes","768","legacy","27","27","/Users/danieldalton/Desktop/DD Subject 1.csv","legacy","Jazzy James","3.1.9","0","h","NA","NA","NA","h","h","676","NA","NA","NA","37063","676","2","legacy","1024","2","48000","-16","experiment","SSHSS","1","odd","38867","NA","NA","74391","NA","86642","NA","NA","1783","88484","87678","1750","NA","87691","87806","87806","Flanker Task","24","15523","28","yes","1024"
"86.2068965517","86.2068965517","559.413793103","559.413793103","black","no","legacy","legacy","legacy","0","incongruent","uniform","1","undefined","1","s","0","0","0","28","0","28","0","0","0","28","28","0","28","28","28","28","Sat Sep  8 15:11:08 2018","1500","The main experiment item","yes","Lab 1 PYSCH 5316.osexp","/Users/danieldalton/Desktop","no","mono","no","18","no","white","no","yes","768","legacy","28","28","/Users/danieldalton/Desktop/DD Subject 1.csv","legacy","Jazzy James","3.1.9","0","s","NA","NA","NA","h","s","700","NA","NA","NA","37063","700","2","legacy","1024","2","48000","-16","experiment","HHSHH","1","odd","38867","NA","NA","74391","NA","88498","NA","NA","1783","90362","89531","1750","NA","89542","89660","89660","Flanker Task","25","16223","29","yes","1024"
"86.6666666667","86.6666666667","558.766666667","558.766666667","black","no","legacy","legacy","legacy","0","congruent","uniform","1","undefined","1","h","0","0","0","29","0","29","0","0","0","29","29","0","29","29","29","29","Sat Sep  8 15:11:08 2018","1500","The main experiment item","yes","Lab 1 PYSCH 5316.osexp","/Users/danieldalton/Desktop","no","mono","no","18","no","white","no","yes","768","legacy","29","29","/Users/danieldalton/Desktop/DD Subject 1.csv","legacy","Jazzy James","3.1.9","0","h","NA","NA","NA","h","h","540","NA","NA","NA","37063","540","2","legacy","1024","2","48000","-16","experiment","HHHHH","1","odd","38867","NA","NA","74391","NA","90376","NA","NA","1783","92085","91415","1750","NA","91427","91543","91543","Flanker Task","26","16763","30","yes","1024"
"87.0967741935","87.0967741935","563.451612903","563.451612903","black","no","legacy","legacy","legacy","0","incongurent","uniform","1","undefined","1","h","0","0","0","30","0","30","0","0","0","30","30","0","30","30","30","30","Sat Sep  8 15:11:08 2018","1500","The main experiment item","yes","Lab 1 PYSCH 5316.osexp","/Users/danieldalton/Desktop","no","mono","no","18","no","white","no","yes","768","legacy","30","30","/Users/danieldalton/Desktop/DD Subject 1.csv","legacy","Jazzy James","3.1.9","0","h","NA","NA","NA","h","h","704","NA","NA","NA","37063","704","2","legacy","1024","2","48000","-16","experiment","SSHSS","1","odd","38867","NA","NA","74391","NA","92100","NA","NA","1783","93967","93135","1750","NA","93147","93262","93261","Flanker Task","27","17467","31","yes","1024"
"87.5","87.5","563.875","563.875","black","no","legacy","legacy","legacy","0","congruent","uniform","1","undefined","1","h","0","0","0","31","0","31","0","0","0","31","31","0","31","31","31","31","Sat Sep  8 15:11:08 2018","1500","The main experiment item","yes","Lab 1 PYSCH 5316.osexp","/Users/danieldalton/Desktop","no","mono","no","18","no","white","no","yes","768","legacy","31","31","/Users/danieldalton/Desktop/DD Subject 1.csv","legacy","Jazzy James","3.1.9","0","h","NA","NA","NA","h","h","577","NA","NA","NA","37063","577","2","legacy","1024","2","48000","-16","experiment","HHHHH","1","odd","38867","NA","NA","74391","NA","93982","NA","NA","1783","95718","95014","1750","NA","95025","95140","95140","Flanker Task","28","18044","32","yes","1024"
"87.8787878788","87.8787878788","569.272727273","569.272727273","black","no","legacy","legacy","legacy","0","incongruent","uniform","1","undefined","1","s","0","0","0","32","0","32","0","0","0","32","32","0","32","32","32","32","Sat Sep  8 15:11:08 2018","1500","The main experiment item","yes","Lab 1 PYSCH 5316.osexp","/Users/danieldalton/Desktop","no","mono","no","18","no","white","no","yes","768","legacy","32","32","/Users/danieldalton/Desktop/DD Subject 1.csv","legacy","Jazzy James","3.1.9","0","s","NA","NA","NA","h","s","742","NA","NA","NA","37063","742","2","legacy","1024","2","48000","-16","experiment","HHSHH","1","odd","38867","NA","NA","74391","NA","95732","NA","NA","1783","97640","96767","1750","NA","96778","96895","96895","Flanker Task","29","18786","33","yes","1024"
"88.2352941176","88.2352941176","571.558823529","571.558823529","black","no","legacy","legacy","legacy","0","conguent","uniform","1","undefined","1","s","0","0","0","33","0","33","0","0","0","33","33","0","33","33","33","33","Sat Sep  8 15:11:08 2018","1500","The main experiment item","yes","Lab 1 PYSCH 5316.osexp","/Users/danieldalton/Desktop","no","mono","no","18","no","white","no","yes","768","legacy","33","33","/Users/danieldalton/Desktop/DD Subject 1.csv","legacy","Jazzy James","3.1.9","0","s","NA","NA","NA","h","s","647","NA","NA","NA","37063","647","2","legacy","1024","2","48000","-16","experiment","SSSSS","1","odd","38867","NA","NA","74391","NA","97654","NA","NA","1783","99465","98689","1750","NA","98701","98816","98816","Flanker Task","30","19433","34","yes","1024"
"88.5714285714","88.5714285714","570","570","black","no","legacy","legacy","legacy","0","congruent","uniform","1","undefined","1","h","0","0","0","34","0","34","0","0","0","34","34","0","34","34","34","34","Sat Sep  8 15:11:08 2018","1500","The main experiment item","yes","Lab 1 PYSCH 5316.osexp","/Users/danieldalton/Desktop","no","mono","no","18","no","white","no","yes","768","legacy","34","34","/Users/danieldalton/Desktop/DD Subject 1.csv","legacy","Jazzy James","3.1.9","0","h","NA","NA","NA","h","h","517","NA","NA","NA","37063","517","2","legacy","1024","2","48000","-16","experiment","HHHHH","1","odd","38867","NA","NA","74391","NA","99479","NA","NA","1783","101162","100516","1750","NA","100528","100643","100642","Flanker Task","31","19950","35","yes","1024"
"88.8888888889","88.8888888889","571.527777778","571.527777778","black","no","legacy","legacy","legacy","0","conguent","uniform","1","undefined","1","s","0","0","0","35","0","35","0","0","0","35","35","0","35","35","35","35","Sat Sep  8 15:11:08 2018","1500","The main experiment item","yes","Lab 1 PYSCH 5316.osexp","/Users/danieldalton/Desktop","no","mono","no","18","no","white","no","yes","768","legacy","35","35","/Users/danieldalton/Desktop/DD Subject 1.csv","legacy","Jazzy James","3.1.9","0","s","NA","NA","NA","h","s","625","NA","NA","NA","37063","625","2","legacy","1024","2","48000","-16","experiment","SSSSS","1","odd","38867","NA","NA","74391","NA","101177","NA","NA","1783","102989","102229","1750","NA","102246","102362","102362","Flanker Task","32","20575","36","yes","1024"
"89.1891891892","89.1891891892","570.243243243","570.243243243","black","no","legacy","legacy","legacy","0","incongurent","uniform","1","undefined","1","h","0","0","0","36","0","36","0","0","0","36","36","0","36","36","36","36","Sat Sep  8 15:11:08 2018","1500","The main experiment item","yes","Lab 1 PYSCH 5316.osexp","/Users/danieldalton/Desktop","no","mono","no","18","no","white","no","yes","768","legacy","36","36","/Users/danieldalton/Desktop/DD Subject 1.csv","legacy","Jazzy James","3.1.9","0","h","NA","NA","NA","h","h","524","NA","NA","NA","37063","524","2","legacy","1024","2","48000","-16","experiment","SSHSS","1","odd","38867","NA","NA","74391","NA","103003","NA","NA","1783","104688","104038","1750","NA","104049","104160","104160","Flanker Task","33","21099","37","yes","1024"
"89.4736842105","89.4736842105","573.368421053","573.368421053","black","no","legacy","legacy","legacy","0","conguent","uniform","1","undefined","1","s","0","0","0","37","0","37","0","0","0","37","37","0","37","37","37","37","Sat Sep  8 15:11:08 2018","1500","The main experiment item","yes","Lab 1 PYSCH 5316.osexp","/Users/danieldalton/Desktop","no","mono","no","18","no","white","no","yes","768","legacy","37","37","/Users/danieldalton/Desktop/DD Subject 1.csv","legacy","Jazzy James","3.1.9","0","s","NA","NA","NA","h","s","689","NA","NA","NA","37063","689","2","legacy","1024","2","48000","-16","experiment","SSSSS","1","odd","38867","NA","NA","74391","NA","104703","NA","NA","1783","106560","105738","1750","NA","105749","105869","105868","Flanker Task","34","21788","38","yes","1024"
"89.7435897436","89.7435897436","579.487179487","579.487179487","black","no","legacy","legacy","legacy","0","incongruent","uniform","1","undefined","1","s","0","0","0","38","0","38","0","0","0","38","38","0","38","38","38","38","Sat Sep  8 15:11:08 2018","1500","The main experiment item","yes","Lab 1 PYSCH 5316.osexp","/Users/danieldalton/Desktop","no","mono","no","18","no","white","no","yes","768","legacy","38","38","/Users/danieldalton/Desktop/DD Subject 1.csv","legacy","Jazzy James","3.1.9","0","s","NA","NA","NA","h","s","812","NA","NA","NA","37063","812","2","legacy","1024","2","48000","-16","experiment","HHSHH","1","odd","38867","NA","NA","74391","NA","106574","NA","NA","1783","108551","107607","1750","NA","107619","107737","107737","Flanker Task","35","22600","39","yes","1024"
"90","90","581.275","581.275","black","no","legacy","legacy","legacy","0","incongruent","uniform","1","undefined","1","s","0","0","0","39","0","39","0","0","0","39","39","0","39","39","39","39","Sat Sep  8 15:11:08 2018","1500","The main experiment item","yes","Lab 1 PYSCH 5316.osexp","/Users/danieldalton/Desktop","no","mono","no","18","no","white","no","yes","768","legacy","39","39","/Users/danieldalton/Desktop/DD Subject 1.csv","legacy","Jazzy James","3.1.9","0","s","NA","NA","NA","h","s","651","NA","NA","NA","37063","651","2","legacy","1024","2","48000","-16","experiment","HHSHH","1","odd","38867","NA","NA","74391","NA","108568","NA","NA","1783","110387","109603","1750","NA","109615","109733","109733","Flanker Task","36","23251","40","yes","1024"
"90.243902439","90.243902439","581.902439024","581.902439024","black","no","legacy","legacy","legacy","0","incongruent","uniform","1","undefined","1","s","0","0","0","40","0","40","0","0","0","40","40","0","40","40","40","40","Sat Sep  8 15:11:08 2018","1500","The main experiment item","yes","Lab 1 PYSCH 5316.osexp","/Users/danieldalton/Desktop","no","mono","no","18","no","white","no","yes","768","legacy","40","40","/Users/danieldalton/Desktop/DD Subject 1.csv","legacy","Jazzy James","3.1.9","0","s","NA","NA","NA","h","s","607","NA","NA","NA","37063","607","2","legacy","1024","2","48000","-16","experiment","HHSHH","1","odd","38867","NA","NA","74391","NA","110408","NA","NA","1783","112179","111443","1750","NA","111454","111570","111570","Flanker Task","37","23858","41","yes","1024"
"90.4761904762","90.4761904762","584.023809524","584.023809524","black","no","legacy","legacy","legacy","0","incongurent","uniform","1","undefined","1","h","0","0","0","41","0","41","0","0","0","41","41","0","41","41","41","41","Sat Sep  8 15:11:08 2018","1500","The main experiment item","yes","Lab 1 PYSCH 5316.osexp","/Users/danieldalton/Desktop","no","mono","no","18","no","white","no","yes","768","legacy","41","41","/Users/danieldalton/Desktop/DD Subject 1.csv","legacy","Jazzy James","3.1.9","0","h","NA","NA","NA","h","h","671","NA","NA","NA","37063","671","2","legacy","1024","2","48000","-16","experiment","SSHSS","1","odd","38867","NA","NA","74391","NA","112194","NA","NA","1783","114028","113228","1750","NA","113239","113354","113354","Flanker Task","38","24529","42","yes","1024"
"90.6976744186","90.6976744186","581.465116279","581.465116279","black","no","legacy","legacy","legacy","0","congruent","uniform","1","undefined","1","h","0","0","0","42","0","42","0","0","0","42","42","0","42","42","42","42","Sat Sep  8 15:11:08 2018","1500","The main experiment item","yes","Lab 1 PYSCH 5316.osexp","/Users/danieldalton/Desktop","no","mono","no","18","no","white","no","yes","768","legacy","42","42","/Users/danieldalton/Desktop/DD Subject 1.csv","legacy","Jazzy James","3.1.9","0","h","NA","NA","NA","h","h","474","NA","NA","NA","37063","474","2","legacy","1024","2","48000","-16","experiment","HHHHH","1","odd","38867","NA","NA","74391","NA","114042","NA","NA","1783","115686","115075","1750","NA","115087","115209","115209","Flanker Task","39","25003","43","yes","1024"
"90.9090909091","90.9090909091","579.613636364","579.613636364","black","no","legacy","legacy","legacy","0","incongurent","uniform","1","undefined","1","h","0","0","0","43","0","43","0","0","0","43","43","0","43","43","43","43","Sat Sep  8 15:11:08 2018","1500","The main experiment item","yes","Lab 1 PYSCH 5316.osexp","/Users/danieldalton/Desktop","no","mono","no","18","no","white","no","yes","768","legacy","43","43","/Users/danieldalton/Desktop/DD Subject 1.csv","legacy","Jazzy James","3.1.9","0","h","NA","NA","NA","h","h","500","NA","NA","NA","37063","500","2","legacy","1024","2","48000","-16","experiment","SSHSS","1","odd","38867","NA","NA","74391","NA","115700","NA","NA","1783","117362","116734","1750","NA","116745","116860","116860","Flanker Task","40","25503","44","yes","1024"
"91.1111111111","91.1111111111","576.066666667","576.066666667","black","no","legacy","legacy","legacy","0","conguent","uniform","1","undefined","1","s","0","0","0","44","0","44","0","0","0","44","44","0","44","44","44","44","Sat Sep  8 15:11:08 2018","1500","The main experiment item","yes","Lab 1 PYSCH 5316.osexp","/Users/danieldalton/Desktop","no","mono","no","18","no","white","no","yes","768","legacy","44","44","/Users/danieldalton/Desktop/DD Subject 1.csv","legacy","Jazzy James","3.1.9","0","s","NA","NA","NA","h","s","420","NA","NA","NA","37063","420","2","legacy","1024","2","48000","-16","experiment","SSSSS","1","odd","38867","NA","NA","74391","NA","117379","NA","NA","1783","118964","118416","1750","NA","118430","118541","118541","Flanker Task","41","25923","45","yes","1024"
"91.3043478261","91.3043478261","576.673913043","576.673913043","black","no","legacy","legacy","legacy","0","incongruent","uniform","1","undefined","1","s","0","0","0","45","0","45","0","0","0","45","45","0","45","45","45","45","Sat Sep  8 15:11:08 2018","1500","The main experiment item","yes","Lab 1 PYSCH 5316.osexp","/Users/danieldalton/Desktop","no","mono","no","18","no","white","no","yes","768","legacy","45","45","/Users/danieldalton/Desktop/DD Subject 1.csv","legacy","Jazzy James","3.1.9","0","s","NA","NA","NA","h","s","604","NA","NA","NA","37063","604","2","legacy","1024","2","48000","-16","experiment","HHSHH","1","odd","38867","NA","NA","74391","NA","118978","NA","NA","1783","120746","120013","1750","NA","120025","120140","120139","Flanker Task","42","26527","46","yes","1024"
"91.4893617021","91.4893617021","573.808510638","573.808510638","black","no","legacy","legacy","legacy","0","conguent","uniform","1","undefined","1","s","0","0","0","46","0","46","0","0","0","46","46","0","46","46","46","46","Sat Sep  8 15:11:08 2018","1500","The main experiment item","yes","Lab 1 PYSCH 5316.osexp","/Users/danieldalton/Desktop","no","mono","no","18","no","white","no","yes","768","legacy","46","46","/Users/danieldalton/Desktop/DD Subject 1.csv","legacy","Jazzy James","3.1.9","0","s","NA","NA","NA","h","s","442","NA","NA","NA","37063","442","2","legacy","1024","2","48000","-16","experiment","SSSSS","1","odd","38867","NA","NA","74391","NA","120761","NA","NA","1783","122362","121795","1750","NA","121807","121918","121918","Flanker Task","43","26969","47","yes","1024"
"91.6666666667","91.6666666667","573.9375","573.9375","black","no","legacy","legacy","legacy","0","congruent","uniform","1","undefined","1","h","0","0","0","47","0","47","0","0","0","47","47","0","47","47","47","47","Sat Sep  8 15:11:08 2018","1500","The main experiment item","yes","Lab 1 PYSCH 5316.osexp","/Users/danieldalton/Desktop","no","mono","no","18","no","white","no","yes","768","legacy","47","47","/Users/danieldalton/Desktop/DD Subject 1.csv","legacy","Jazzy James","3.1.9","0","h","NA","NA","NA","h","h","580","NA","NA","NA","37063","580","2","legacy","1024","2","48000","-16","experiment","HHHHH","1","odd","38867","NA","NA","74391","NA","122377","NA","NA","1783","124122","123410","1750","NA","123422","123539","123539","Flanker Task","44","27549","48","yes","1024"
"91.8367346939","91.8367346939","572.87755102","572.87755102","black","no","legacy","legacy","legacy","0","conguent","uniform","1","undefined","1","s","0","0","0","48","0","48","0","0","0","48","48","0","48","48","48","48","Sat Sep  8 15:11:08 2018","1500","The main experiment item","yes","Lab 1 PYSCH 5316.osexp","/Users/danieldalton/Desktop","no","mono","no","18","no","white","no","yes","768","legacy","48","48","/Users/danieldalton/Desktop/DD Subject 1.csv","legacy","Jazzy James","3.1.9","0","s","NA","NA","NA","h","s","522","NA","NA","NA","37063","522","2","legacy","1024","2","48000","-16","experiment","SSSSS","1","odd","38867","NA","NA","74391","NA","124136","NA","NA","1783","125827","125173","1750","NA","125184","125303","125303","Flanker Task","45","28071","49","yes","1024"
"92","92","571.02","571.02","black","no","legacy","legacy","legacy","0","conguent","uniform","1","undefined","1","s","0","0","0","49","0","49","0","0","0","49","49","0","49","49","49","49","Sat Sep  8 15:11:08 2018","1500","The main experiment item","yes","Lab 1 PYSCH 5316.osexp","/Users/danieldalton/Desktop","no","mono","no","18","no","white","no","yes","768","legacy","49","49","/Users/danieldalton/Desktop/DD Subject 1.csv","legacy","Jazzy James","3.1.9","0","s","NA","NA","NA","h","s","480","NA","NA","NA","37063","480","2","legacy","1024","2","48000","-16","experiment","SSSSS","1","odd","38867","NA","NA","74391","NA","125841","NA","NA","1783","127486","126877","1750","NA","126889","127004","127004","Flanker Task","46","28551","50","yes","1024"
"92.1568627451","92.1568627451","570.921568627","570.921568627","black","no","legacy","legacy","legacy","0","incongruent","uniform","1","undefined","1","s","0","0","0","50","0","50","0","0","0","50","50","0","50","50","50","50","Sat Sep  8 15:11:08 2018","1500","The main experiment item","yes","Lab 1 PYSCH 5316.osexp","/Users/danieldalton/Desktop","no","mono","no","18","no","white","no","yes","768","legacy","50","50","/Users/danieldalton/Desktop/DD Subject 1.csv","legacy","Jazzy James","3.1.9","0","s","NA","NA","NA","h","s","566","NA","NA","NA","37063","566","2","legacy","1024","2","48000","-16","experiment","HHSHH","1","odd","38867","NA","NA","74391","NA","127500","NA","NA","1783","129226","128532","1750","NA","128543","128658","128658","Flanker Task","47","29117","51","yes","1024"
"92.3076923077","92.3076923077","567.865384615","567.865384615","black","no","legacy","legacy","legacy","0","incongruent","uniform","1","undefined","1","s","0","0","0","51","0","51","0","0","0","51","51","0","51","51","51","51","Sat Sep  8 15:11:08 2018","1500","The main experiment item","yes","Lab 1 PYSCH 5316.osexp","/Users/danieldalton/Desktop","no","mono","no","18","no","white","no","yes","768","legacy","51","51","/Users/danieldalton/Desktop/DD Subject 1.csv","legacy","Jazzy James","3.1.9","0","s","NA","NA","NA","h","s","412","NA","NA","NA","37063","412","2","legacy","1024","2","48000","-16","experiment","HHSHH","1","odd","38867","NA","NA","74391","NA","129240","NA","NA","1783","130815","130273","1750","NA","130285","130401","130401","Flanker Task","48","29529","52","yes","1024"
"92.4528301887","92.4528301887","570.622641509","570.622641509","black","no","legacy","legacy","legacy","0","incongruent","uniform","1","undefined","1","s","0","0","0","52","0","52","0","0","0","52","52","0","52","52","52","52","Sat Sep  8 15:11:08 2018","1500","The main experiment item","yes","Lab 1 PYSCH 5316.osexp","/Users/danieldalton/Desktop","no","mono","no","18","no","white","no","yes","768","legacy","52","52","/Users/danieldalton/Desktop/DD Subject 1.csv","legacy","Jazzy James","3.1.9","0","s","NA","NA","NA","h","s","714","NA","NA","NA","37063","714","2","legacy","1024","2","48000","-16","experiment","HHSHH","1","odd","38867","NA","NA","74391","NA","130829","NA","NA","1783","132704","131862","1750","NA","131873","131988","131987","Flanker Task","49","30243","53","yes","1024"
"92.5925925926","92.5925925926","567.944444444","567.944444444","black","no","legacy","legacy","legacy","0","conguent","uniform","1","undefined","1","s","0","0","0","53","0","53","0","0","0","53","53","0","53","53","53","53","Sat Sep  8 15:11:08 2018","1500","The main experiment item","yes","Lab 1 PYSCH 5316.osexp","/Users/danieldalton/Desktop","no","mono","no","18","no","white","no","yes","768","legacy","53","53","/Users/danieldalton/Desktop/DD Subject 1.csv","legacy","Jazzy James","3.1.9","0","s","NA","NA","NA","h","s","426","NA","NA","NA","37063","426","2","legacy","1024","2","48000","-16","experiment","SSSSS","1","odd","38867","NA","NA","74391","NA","132718","NA","NA","1783","134313","133754","1750","NA","133766","133884","133883","Flanker Task","50","30669","54","yes","1024"
"92.7272727273","92.7272727273","566.290909091","566.290909091","black","no","legacy","legacy","legacy","0","incongruent","uniform","1","undefined","1","s","0","0","0","54","0","54","0","0","0","54","54","0","54","54","54","54","Sat Sep  8 15:11:08 2018","1500","The main experiment item","yes","Lab 1 PYSCH 5316.osexp","/Users/danieldalton/Desktop","no","mono","no","18","no","white","no","yes","768","legacy","54","54","/Users/danieldalton/Desktop/DD Subject 1.csv","legacy","Jazzy James","3.1.9","0","s","NA","NA","NA","h","s","477","NA","NA","NA","37063","477","2","legacy","1024","2","48000","-16","experiment","HHSHH","1","odd","38867","NA","NA","74391","NA","134328","NA","NA","1783","135973","135365","1750","NA","135377","135493","135493","Flanker Task","51","31146","55","yes","1024"
"92.8571428571","92.8571428571","563.071428571","563.071428571","black","no","legacy","legacy","legacy","0","conguent","uniform","1","undefined","1","s","0","0","0","55","0","55","0","0","0","55","55","0","55","55","55","55","Sat Sep  8 15:11:08 2018","1500","The main experiment item","yes","Lab 1 PYSCH 5316.osexp","/Users/danieldalton/Desktop","no","mono","no","18","no","white","no","yes","768","legacy","55","55","/Users/danieldalton/Desktop/DD Subject 1.csv","legacy","Jazzy James","3.1.9","0","s","NA","NA","NA","h","s","386","NA","NA","NA","37063","386","2","legacy","1024","2","48000","-16","experiment","SSSSS","1","odd","38867","NA","NA","74391","NA","135987","NA","NA","1783","137536","137019","1750","NA","137030","137146","137145","Flanker Task","52","31532","56","yes","1024"
"91.2280701754","91.2280701754","560.49122807","560.49122807","black","no","legacy","legacy","legacy","0","incongurent","uniform","0","undefined","0","h","0","0","0","56","0","56","0","0","0","56","56","0","56","56","56","56","Sat Sep  8 15:11:08 2018","1500","The main experiment item","yes","Lab 1 PYSCH 5316.osexp","/Users/danieldalton/Desktop","no","mono","no","18","no","white","no","yes","768","legacy","56","56","/Users/danieldalton/Desktop/DD Subject 1.csv","legacy","Jazzy James","3.1.9","0","s","NA","NA","NA","h","s","416","NA","NA","NA","37063","416","2","legacy","1024","2","48000","-16","experiment","SSHSS","1","odd","38867","NA","NA","74391","NA","137551","NA","NA","1783","139155","138601","1750","NA","138617","138734","138734","Flanker Task","52","31948","57","yes","1024"
"91.3793103448","91.3793103448","560.086206897","560.086206897","black","no","legacy","legacy","legacy","0","incongurent","uniform","1","undefined","1","h","0","0","0","57","0","57","0","0","0","57","57","0","57","57","57","57","Sat Sep  8 15:11:08 2018","1500","The main experiment item","yes","Lab 1 PYSCH 5316.osexp","/Users/danieldalton/Desktop","no","mono","no","18","no","white","no","yes","768","legacy","57","57","/Users/danieldalton/Desktop/DD Subject 1.csv","legacy","Jazzy James","3.1.9","0","h","NA","NA","NA","h","h","537","NA","NA","NA","37063","537","2","legacy","1024","2","48000","-16","experiment","SSHSS","1","odd","38867","NA","NA","139176","NA","139688","NA","NA","1783","141393","140722","1750","NA","140734","140853","140853","Flanker Task","53","32485","58","yes","1024"
"91.5254237288","91.5254237288","561.203389831","561.203389831","black","no","legacy","legacy","legacy","0","incongruent","uniform","1","undefined","1","s","0","0","0","58","0","58","0","0","0","58","58","0","58","58","58","58","Sat Sep  8 15:11:08 2018","1500","The main experiment item","yes","Lab 1 PYSCH 5316.osexp","/Users/danieldalton/Desktop","no","mono","no","18","no","white","no","yes","768","legacy","58","58","/Users/danieldalton/Desktop/DD Subject 1.csv","legacy","Jazzy James","3.1.9","0","s","NA","NA","NA","h","s","626","NA","NA","NA","37063","626","2","legacy","1024","2","48000","-16","experiment","HHSHH","1","odd","38867","NA","NA","139176","NA","141413","NA","NA","1783","143202","142450","1750","NA","142463","142574","142574","Flanker Task","54","33111","59","yes","1024"
"91.6666666667","91.6666666667","559.65","559.65","black","no","legacy","legacy","legacy","0","congruent","uniform","1","undefined","1","h","0","0","0","59","0","59","0","0","0","59","59","0","59","59","59","59","Sat Sep  8 15:11:08 2018","1500","The main experiment item","yes","Lab 1 PYSCH 5316.osexp","/Users/danieldalton/Desktop","no","mono","no","18","no","white","no","yes","768","legacy","59","59","/Users/danieldalton/Desktop/DD Subject 1.csv","legacy","Jazzy James","3.1.9","0","h","NA","NA","NA","h","h","468","NA","NA","NA","37063","468","2","legacy","1024","2","48000","-16","experiment","HHHHH","1","odd","38867","NA","NA","139176","NA","143217","NA","NA","1783","144854","144253","1750","NA","144266","144383","144383","Flanker Task","55","33579","60","yes","1024"
"91.8032786885","91.8032786885","561.180327869","561.180327869","black","no","legacy","legacy","legacy","0","incongurent","uniform","1","undefined","1","h","0","0","0","60","0","60","0","0","0","60","60","0","60","60","60","60","Sat Sep  8 15:11:08 2018","1500","The main experiment item","yes","Lab 1 PYSCH 5316.osexp","/Users/danieldalton/Desktop","no","mono","no","18","no","white","no","yes","768","legacy","60","60","/Users/danieldalton/Desktop/DD Subject 1.csv","legacy","Jazzy James","3.1.9","0","h","NA","NA","NA","h","h","653","NA","NA","NA","37063","653","2","legacy","1024","2","48000","-16","experiment","SSHSS","1","odd","38867","NA","NA","139176","NA","144868","NA","NA","1783","146681","145902","1750","NA","145914","146026","146025","Flanker Task","56","34232","61","yes","1024"
"91.935483871","91.935483871","561.85483871","561.85483871","black","no","legacy","legacy","legacy","0","incongruent","uniform","1","undefined","1","s","0","0","0","61","0","61","0","0","0","61","61","0","61","61","61","61","Sat Sep  8 15:11:08 2018","1500","The main experiment item","yes","Lab 1 PYSCH 5316.osexp","/Users/danieldalton/Desktop","no","mono","no","18","no","white","no","yes","768","legacy","61","61","/Users/danieldalton/Desktop/DD Subject 1.csv","legacy","Jazzy James","3.1.9","0","s","NA","NA","NA","h","s","603","NA","NA","NA","37063","603","2","legacy","1024","2","48000","-16","experiment","HHSHH","1","odd","38867","NA","NA","139176","NA","146696","NA","NA","1783","148469","147736","1750","NA","147748","147864","147864","Flanker Task","57","34835","62","yes","1024"
"92.0634920635","92.0634920635","564.698412698","564.698412698","black","no","legacy","legacy","legacy","0","conguent","uniform","1","undefined","1","s","0","0","0","62","0","62","0","0","0","62","62","0","62","62","62","62","Sat Sep  8 15:11:08 2018","1500","The main experiment item","yes","Lab 1 PYSCH 5316.osexp","/Users/danieldalton/Desktop","no","mono","no","18","no","white","no","yes","768","legacy","62","62","/Users/danieldalton/Desktop/DD Subject 1.csv","legacy","Jazzy James","3.1.9","0","s","NA","NA","NA","h","s","741","NA","NA","NA","37063","741","2","legacy","1024","2","48000","-16","experiment","SSSSS","1","odd","38867","NA","NA","139176","NA","148484","NA","NA","1783","150386","149519","1750","NA","149530","149643","149643","Flanker Task","58","35576","63","yes","1024"
"92.1875","92.1875","563.421875","563.421875","black","no","legacy","legacy","legacy","0","congruent","uniform","1","undefined","1","h","0","0","0","63","0","63","0","0","0","63","63","0","63","63","63","63","Sat Sep  8 15:11:08 2018","1500","The main experiment item","yes","Lab 1 PYSCH 5316.osexp","/Users/danieldalton/Desktop","no","mono","no","18","no","white","no","yes","768","legacy","63","63","/Users/danieldalton/Desktop/DD Subject 1.csv","legacy","Jazzy James","3.1.9","0","h","NA","NA","NA","h","h","483","NA","NA","NA","37063","483","2","legacy","1024","2","48000","-16","experiment","HHHHH","1","odd","38867","NA","NA","139176","NA","150400","NA","NA","1783","152050","151436","1750","NA","151448","151565","151565","Flanker Task","59","36059","64","yes","1024"
"92.3076923077","92.3076923077","562.046153846","562.046153846","black","no","legacy","legacy","legacy","0","congruent","uniform","1","undefined","1","h","0","0","0","64","0","64","0","0","0","64","64","0","64","64","64","64","Sat Sep  8 15:11:08 2018","1500","The main experiment item","yes","Lab 1 PYSCH 5316.osexp","/Users/danieldalton/Desktop","no","mono","no","18","no","white","no","yes","768","legacy","64","64","/Users/danieldalton/Desktop/DD Subject 1.csv","legacy","Jazzy James","3.1.9","0","h","NA","NA","NA","h","h","474","NA","NA","NA","37063","474","2","legacy","1024","2","48000","-16","experiment","HHHHH","1","odd","38867","NA","NA","139176","NA","152064","NA","NA","1783","153698","153098","1750","NA","153109","153221","153221","Flanker Task","60","36533","65","yes","1024"
"92.4242424242","92.4242424242","559.590909091","559.590909091","black","no","legacy","legacy","legacy","0","congruent","uniform","1","undefined","1","h","0","0","0","65","0","65","0","0","0","65","65","0","65","65","65","65","Sat Sep  8 15:11:08 2018","1500","The main experiment item","yes","Lab 1 PYSCH 5316.osexp","/Users/danieldalton/Desktop","no","mono","no","18","no","white","no","yes","768","legacy","65","65","/Users/danieldalton/Desktop/DD Subject 1.csv","legacy","Jazzy James","3.1.9","0","h","NA","NA","NA","h","h","400","NA","NA","NA","37063","400","2","legacy","1024","2","48000","-16","experiment","HHHHH","1","odd","38867","NA","NA","139176","NA","153713","NA","NA","1783","155274","154746","1750","NA","154758","154871","154871","Flanker Task","61","36933","66","yes","1024"
"92.5373134328","92.5373134328","560.925373134","560.925373134","black","no","legacy","legacy","legacy","0","conguent","uniform","1","undefined","1","s","0","0","0","66","0","66","0","0","0","66","66","0","66","66","66","66","Sat Sep  8 15:11:08 2018","1500","The main experiment item","yes","Lab 1 PYSCH 5316.osexp","/Users/danieldalton/Desktop","no","mono","no","18","no","white","no","yes","768","legacy","66","66","/Users/danieldalton/Desktop/DD Subject 1.csv","legacy","Jazzy James","3.1.9","0","s","NA","NA","NA","h","s","649","NA","NA","NA","37063","649","2","legacy","1024","2","48000","-16","experiment","SSSSS","1","odd","38867","NA","NA","139176","NA","155287","NA","NA","1783","157105","156324","1750","NA","156336","156453","156453","Flanker Task","62","37582","67","yes","1024"
"92.6470588235","92.6470588235","561.411764706","561.411764706","black","no","legacy","legacy","legacy","0","incongurent","uniform","1","undefined","1","h","0","0","0","67","0","67","0","0","0","67","67","0","67","67","67","67","Sat Sep  8 15:11:08 2018","1500","The main experiment item","yes","Lab 1 PYSCH 5316.osexp","/Users/danieldalton/Desktop","no","mono","no","18","no","white","no","yes","768","legacy","67","67","/Users/danieldalton/Desktop/DD Subject 1.csv","legacy","Jazzy James","3.1.9","0","h","NA","NA","NA","h","h","594","NA","NA","NA","37063","594","2","legacy","1024","2","48000","-16","experiment","SSHSS","1","odd","38867","NA","NA","139176","NA","157119","NA","NA","1783","158876","158152","1750","NA","158164","158279","158278","Flanker Task","63","38176","68","yes","1024"
"92.7536231884","92.7536231884","562.550724638","562.550724638","black","no","legacy","legacy","legacy","0","incongurent","uniform","1","undefined","1","h","0","0","0","68","0","68","0","0","0","68","68","0","68","68","68","68","Sat Sep  8 15:11:08 2018","1500","The main experiment item","yes","Lab 1 PYSCH 5316.osexp","/Users/danieldalton/Desktop","no","mono","no","18","no","white","no","yes","768","legacy","68","68","/Users/danieldalton/Desktop/DD Subject 1.csv","legacy","Jazzy James","3.1.9","0","h","NA","NA","NA","h","h","640","NA","NA","NA","37063","640","2","legacy","1024","2","48000","-16","experiment","SSHSS","1","odd","38867","NA","NA","139176","NA","158890","NA","NA","1783","160692","159925","1750","NA","159936","160050","160050","Flanker Task","64","38816","69","yes","1024"
"92.8571428571","92.8571428571","561.428571429","561.428571429","black","no","legacy","legacy","legacy","0","conguent","uniform","1","undefined","1","s","0","0","0","69","0","69","0","0","0","69","69","0","69","69","69","69","Sat Sep  8 15:11:08 2018","1500","The main experiment item","yes","Lab 1 PYSCH 5316.osexp","/Users/danieldalton/Desktop","no","mono","no","18","no","white","no","yes","768","legacy","69","69","/Users/danieldalton/Desktop/DD Subject 1.csv","legacy","Jazzy James","3.1.9","0","s","NA","NA","NA","h","s","484","NA","NA","NA","37063","484","2","legacy","1024","2","48000","-16","experiment","SSSSS","1","odd","38867","NA","NA","139176","NA","160706","NA","NA","1783","162363","161743","1750","NA","161755","161877","161877","Flanker Task","65","39300","70","yes","1024"
"92.9577464789","92.9577464789","562.042253521","562.042253521","black","no","legacy","legacy","legacy","0","incongruent","uniform","1","undefined","1","s","0","0","0","70","0","70","0","0","0","70","70","0","70","70","70","70","Sat Sep  8 15:11:08 2018","1500","The main experiment item","yes","Lab 1 PYSCH 5316.osexp","/Users/danieldalton/Desktop","no","mono","no","18","no","white","no","yes","768","legacy","70","70","/Users/danieldalton/Desktop/DD Subject 1.csv","legacy","Jazzy James","3.1.9","0","s","NA","NA","NA","h","s","605","NA","NA","NA","37063","605","2","legacy","1024","2","48000","-16","experiment","HHSHH","1","odd","38867","NA","NA","139176","NA","162377","NA","NA","1783","164147","163414","1750","NA","163425","163540","163539","Flanker Task","66","39905","71","yes","1024"
"93.0555555556","93.0555555556","560.597222222","560.597222222","black","no","legacy","legacy","legacy","0","incongruent","uniform","1","undefined","1","s","0","0","0","71","0","71","0","0","0","71","71","0","71","71","71","71","Sat Sep  8 15:11:08 2018","1500","The main experiment item","yes","Lab 1 PYSCH 5316.osexp","/Users/danieldalton/Desktop","no","mono","no","18","no","white","no","yes","768","legacy","71","71","/Users/danieldalton/Desktop/DD Subject 1.csv","legacy","Jazzy James","3.1.9","0","s","NA","NA","NA","h","s","458","NA","NA","NA","37063","458","2","legacy","1024","2","48000","-16","experiment","HHSHH","1","odd","38867","NA","NA","139176","NA","164162","NA","NA","1783","165785","165196","1750","NA","165208","165325","165325","Flanker Task","67","40363","72","yes","1024"
"93.1506849315","93.1506849315","559.945205479","559.945205479","black","no","legacy","legacy","legacy","0","congruent","uniform","1","undefined","1","h","0","0","0","72","0","72","0","0","0","72","72","0","72","72","72","72","Sat Sep  8 15:11:08 2018","1500","The main experiment item","yes","Lab 1 PYSCH 5316.osexp","/Users/danieldalton/Desktop","no","mono","no","18","no","white","no","yes","768","legacy","72","72","/Users/danieldalton/Desktop/DD Subject 1.csv","legacy","Jazzy James","3.1.9","0","h","NA","NA","NA","h","h","513","NA","NA","NA","37063","513","2","legacy","1024","2","48000","-16","experiment","HHHHH","1","odd","38867","NA","NA","139176","NA","165799","NA","NA","1783","167479","166839","1750","NA","166850","166964","166964","Flanker Task","68","40876","73","yes","1024"
"93.2432432432","93.2432432432","558.824324324","558.824324324","black","no","legacy","legacy","legacy","0","conguent","uniform","1","undefined","1","s","0","0","0","73","0","73","0","0","0","73","73","0","73","73","73","73","Sat Sep  8 15:11:08 2018","1500","The main experiment item","yes","Lab 1 PYSCH 5316.osexp","/Users/danieldalton/Desktop","no","mono","no","18","no","white","no","yes","768","legacy","73","73","/Users/danieldalton/Desktop/DD Subject 1.csv","legacy","Jazzy James","3.1.9","0","s","NA","NA","NA","h","s","477","NA","NA","NA","37063","477","2","legacy","1024","2","48000","-16","experiment","SSSSS","1","odd","38867","NA","NA","139176","NA","167493","NA","NA","1783","169133","168527","1750","NA","168538","168654","168653","Flanker Task","69","41353","74","yes","1024"
"93.3333333333","93.3333333333","561.266666667","561.266666667","black","no","legacy","legacy","legacy","0","congruent","uniform","1","undefined","1","h","0","0","0","74","0","74","0","0","0","74","74","0","74","74","74","74","Sat Sep  8 15:11:08 2018","1500","The main experiment item","yes","Lab 1 PYSCH 5316.osexp","/Users/danieldalton/Desktop","no","mono","no","18","no","white","no","yes","768","legacy","74","74","/Users/danieldalton/Desktop/DD Subject 1.csv","legacy","Jazzy James","3.1.9","0","h","NA","NA","NA","h","h","742","NA","NA","NA","37063","742","2","legacy","1024","2","48000","-16","experiment","HHHHH","1","odd","38867","NA","NA","139176","NA","169147","NA","NA","1783","171059","170184","1750","NA","170195","170315","170314","Flanker Task","70","42095","75","yes","1024"
"93.4210526316","93.4210526316","561.434210526","561.434210526","black","no","legacy","legacy","legacy","0","incongruent","uniform","1","undefined","1","s","0","0","0","75","0","75","0","0","0","75","75","0","75","75","75","75","Sat Sep  8 15:11:08 2018","1500","The main experiment item","yes","Lab 1 PYSCH 5316.osexp","/Users/danieldalton/Desktop","no","mono","no","18","no","white","no","yes","768","legacy","75","75","/Users/danieldalton/Desktop/DD Subject 1.csv","legacy","Jazzy James","3.1.9","0","s","NA","NA","NA","h","s","574","NA","NA","NA","37063","574","2","legacy","1024","2","48000","-16","experiment","HHSHH","1","odd","38867","NA","NA","139176","NA","171116","NA","NA","1783","172854","172150","1750","NA","172162","172277","172276","Flanker Task","71","42669","76","yes","1024"
"93.5064935065","93.5064935065","560.74025974","560.74025974","black","no","legacy","legacy","legacy","0","conguent","uniform","1","undefined","1","s","0","0","0","76","0","76","0","0","0","76","76","0","76","76","76","76","Sat Sep  8 15:11:08 2018","1500","The main experiment item","yes","Lab 1 PYSCH 5316.osexp","/Users/danieldalton/Desktop","no","mono","no","18","no","white","no","yes","768","legacy","76","76","/Users/danieldalton/Desktop/DD Subject 1.csv","legacy","Jazzy James","3.1.9","0","s","NA","NA","NA","h","s","508","NA","NA","NA","37063","508","2","legacy","1024","2","48000","-16","experiment","SSSSS","1","odd","38867","NA","NA","139176","NA","172868","NA","NA","1783","174541","173901","1750","NA","173912","174030","174030","Flanker Task","72","43177","77","yes","1024"
"93.5897435897","93.5897435897","561.487179487","561.487179487","black","no","legacy","legacy","legacy","0","congruent","uniform","1","undefined","1","h","0","0","0","77","0","77","0","0","0","77","77","0","77","77","77","77","Sat Sep  8 15:11:08 2018","1500","The main experiment item","yes","Lab 1 PYSCH 5316.osexp","/Users/danieldalton/Desktop","no","mono","no","18","no","white","no","yes","768","legacy","77","77","/Users/danieldalton/Desktop/DD Subject 1.csv","legacy","Jazzy James","3.1.9","0","h","NA","NA","NA","h","h","619","NA","NA","NA","37063","619","2","legacy","1024","2","48000","-16","experiment","HHHHH","1","odd","38867","NA","NA","139176","NA","174555","NA","NA","1783","176338","175589","1750","NA","175600","175716","175716","Flanker Task","73","43796","78","yes","1024"
"93.6708860759","93.6708860759","561.278481013","561.278481013","black","no","legacy","legacy","legacy","0","incongruent","uniform","1","undefined","1","s","0","0","0","78","0","78","0","0","0","78","78","0","78","78","78","78","Sat Sep  8 15:11:08 2018","1500","The main experiment item","yes","Lab 1 PYSCH 5316.osexp","/Users/danieldalton/Desktop","no","mono","no","18","no","white","no","yes","768","legacy","78","78","/Users/danieldalton/Desktop/DD Subject 1.csv","legacy","Jazzy James","3.1.9","0","s","NA","NA","NA","h","s","545","NA","NA","NA","37063","545","2","legacy","1024","2","48000","-16","experiment","HHSHH","1","odd","38867","NA","NA","139176","NA","176353","NA","NA","1783","178063","177387","1750","NA","177399","177515","177515","Flanker Task","74","44341","79","yes","1024"
"93.75","93.75","561.2125","561.2125","black","no","legacy","legacy","legacy","0","incongruent","uniform","1","undefined","1","s","0","0","0","79","0","79","0","0","0","79","79","0","79","79","79","79","Sat Sep  8 15:11:08 2018","1500","The main experiment item","yes","Lab 1 PYSCH 5316.osexp","/Users/danieldalton/Desktop","no","mono","no","18","no","white","no","yes","768","legacy","79","79","/Users/danieldalton/Desktop/DD Subject 1.csv","legacy","Jazzy James","3.1.9","0","s","NA","NA","NA","h","s","556","NA","NA","NA","37063","556","2","legacy","1024","2","48000","-16","experiment","HHSHH","1","odd","38867","NA","NA","139176","NA","178076","NA","NA","1783","179797","179112","1750","NA","179123","179238","179238","Flanker Task","75","44897","80","yes","1024"
"93.8271604938","93.8271604938","562.555555556","562.555555556","black","no","legacy","legacy","legacy","0","incongurent","uniform","1","undefined","1","h","0","0","0","80","0","80","0","0","0","80","80","0","80","80","80","80","Sat Sep  8 15:11:08 2018","600","The main experiment item","yes","Lab 1 PYSCH 5316.osexp","/Users/danieldalton/Desktop","no","mono","no","18","no","white","no","yes","768","legacy","0","79","/Users/danieldalton/Desktop/DD Subject 1.csv","legacy","Jazzy James","3.1.9","0","h","NA","h","NA","h","h","670","NA","14852","NA","37063","670","2","legacy","1024","2","48000","-16","experiment","SSHSS","1","odd","38867","195692","NA","139176","NA","179811","180836","NA","1783","196529","195727","1750","NA","195740","195857","195856","Flanker Task","76","45567","81","yes","1024"
"93.9024390244","93.9024390244","557.926829268","557.926829268","black","no","legacy","legacy","legacy","0","congruent","uniform","1","undefined","1","h","0","0","0","81","0","81","0","0","0","81","81","0","81","81","81","81","Sat Sep  8 15:11:08 2018","600","The main experiment item","yes","Lab 1 PYSCH 5316.osexp","/Users/danieldalton/Desktop","no","mono","no","18","no","white","no","yes","768","legacy","1","79","/Users/danieldalton/Desktop/DD Subject 1.csv","legacy","Jazzy James","3.1.9","0","h","NA","h","NA","h","h","183","NA","14852","NA","37063","183","2","legacy","1024","2","48000","-16","experiment","HHHHH","1","odd","38867","195692","NA","139176","NA","197057","180836","NA","1783","198404","198092","1750","196544","198103","198218","198218","Flanker Task","77","45750","82","yes","1024"
"93.9759036145","93.9759036145","554.313253012","554.313253012","black","no","legacy","legacy","legacy","0","incongurent","uniform","1","undefined","1","h","0","0","0","82","0","82","0","0","0","82","82","0","82","82","82","82","Sat Sep  8 15:11:08 2018","600","The main experiment item","yes","Lab 1 PYSCH 5316.osexp","/Users/danieldalton/Desktop","no","mono","no","18","no","white","no","yes","768","legacy","2","79","/Users/danieldalton/Desktop/DD Subject 1.csv","legacy","Jazzy James","3.1.9","0","h","NA","h","NA","h","h","258","NA","14852","NA","37063","258","2","legacy","1024","2","48000","-16","experiment","SSHSS","1","odd","38867","195692","NA","139176","NA","198418","180836","NA","1783","199845","199453","1750","196544","199466","199584","199584","Flanker Task","78","46008","83","yes","1024"
"92.8571428571","92.8571428571","551.25","551.25","black","no","legacy","legacy","legacy","0","incongruent","uniform","0","undefined","0","s","0","0","0","83","0","83","0","0","0","83","83","0","83","83","83","83","Sat Sep  8 15:11:08 2018","600","The main experiment item","yes","Lab 1 PYSCH 5316.osexp","/Users/danieldalton/Desktop","no","mono","no","18","no","white","no","yes","768","legacy","3","79","/Users/danieldalton/Desktop/DD Subject 1.csv","legacy","Jazzy James","3.1.9","0","h","NA","h","NA","h","h","297","NA","14852","NA","37063","297","2","legacy","1024","2","48000","-16","experiment","HHSHH","1","odd","38867","195692","NA","139176","NA","199859","180836","NA","1783","201322","200894","1750","196544","200907","201022","201022","Flanker Task","78","46305","84","yes","1024"
"92.9411764706","92.9411764706","546.505882353","546.505882353","black","no","legacy","legacy","legacy","0","conguent","uniform","1","undefined","1","s","0","0","0","84","0","84","0","0","0","84","84","0","84","84","84","84","Sat Sep  8 15:11:08 2018","600","The main experiment item","yes","Lab 1 PYSCH 5316.osexp","/Users/danieldalton/Desktop","no","mono","no","18","no","white","no","yes","768","legacy","4","79","/Users/danieldalton/Desktop/DD Subject 1.csv","legacy","Jazzy James","3.1.9","0","s","NA","h","NA","h","s","148","NA","14852","NA","37063","148","2","legacy","1024","2","48000","-16","experiment","SSSSS","1","odd","38867","195692","NA","201338","NA","201851","180836","NA","1783","203162","202882","1750","196544","202894","203010","203009","Flanker Task","79","46453","85","yes","1024"
"93.023255814","93.023255814","542.558139535","542.558139535","black","no","legacy","legacy","legacy","0","conguent","uniform","1","undefined","1","s","0","0","0","85","0","85","0","0","0","85","85","0","85","85","85","85","Sat Sep  8 15:11:08 2018","600","The main experiment item","yes","Lab 1 PYSCH 5316.osexp","/Users/danieldalton/Desktop","no","mono","no","18","no","white","no","yes","768","legacy","5","79","/Users/danieldalton/Desktop/DD Subject 1.csv","legacy","Jazzy James","3.1.9","0","s","NA","h","NA","h","s","207","NA","14852","NA","37063","207","2","legacy","1024","2","48000","-16","experiment","SSSSS","1","odd","38867","195692","NA","201338","NA","203176","180836","NA","1783","204547","204212","1750","196544","204223","204338","204337","Flanker Task","80","46660","86","yes","1024"
"91.9540229885","91.9540229885","540.16091954","540.16091954","black","no","legacy","legacy","legacy","0","congruent","uniform","0","undefined","0","h","0","0","0","86","0","86","0","0","0","86","86","0","86","86","86","86","Sat Sep  8 15:11:08 2018","600","The main experiment item","yes","Lab 1 PYSCH 5316.osexp","/Users/danieldalton/Desktop","no","mono","no","18","no","white","no","yes","768","legacy","6","79","/Users/danieldalton/Desktop/DD Subject 1.csv","legacy","Jazzy James","3.1.9","0","s","NA","h","NA","h","s","334","NA","14852","NA","37063","334","2","legacy","1024","2","48000","-16","experiment","HHHHH","1","odd","38867","195692","NA","201338","NA","204562","180836","NA","1783","206062","205597","1750","196544","205608","205726","205726","Flanker Task","80","46994","87","yes","1024"
"90.9090909091","90.9090909091","537.636363636","537.636363636","black","no","legacy","legacy","legacy","0","incongruent","uniform","0","undefined","0","s","0","0","0","87","0","87","0","0","0","87","87","0","87","87","87","87","Sat Sep  8 15:11:08 2018","600","The main experiment item","yes","Lab 1 PYSCH 5316.osexp","/Users/danieldalton/Desktop","no","mono","no","18","no","white","no","yes","768","legacy","7","79","/Users/danieldalton/Desktop/DD Subject 1.csv","legacy","Jazzy James","3.1.9","0","h","NA","h","NA","h","h","318","NA","14852","NA","37063","318","2","legacy","1024","2","48000","-16","experiment","HHSHH","1","odd","38867","195692","NA","206077","NA","206591","180836","NA","1783","208080","207626","1750","196544","207641","207760","207760","Flanker Task","80","47312","88","yes","1024"
"89.8876404494","89.8876404494","534.876404494","534.876404494","black","no","legacy","legacy","legacy","0","incongurent","uniform","0","undefined","0","h","0","0","0","88","0","88","0","0","0","88","88","0","88","88","88","88","Sat Sep  8 15:11:08 2018","600","The main experiment item","yes","Lab 1 PYSCH 5316.osexp","/Users/danieldalton/Desktop","no","mono","no","18","no","white","no","yes","768","legacy","8","79","/Users/danieldalton/Desktop/DD Subject 1.csv","legacy","Jazzy James","3.1.9","0","s","NA","h","NA","h","s","292","NA","14852","NA","37063","292","2","legacy","1024","2","48000","-16","experiment","SSHSS","1","odd","38867","195692","NA","208098","NA","208614","180836","NA","1783","210072","209648","1750","196544","209660","209775","209774","Flanker Task","80","47604","89","yes","1024"
"90","90","534.955555556","534.955555556","black","no","legacy","legacy","legacy","0","incongurent","uniform","1","undefined","1","h","0","0","0","89","0","89","0","0","0","89","89","0","89","89","89","89","Sat Sep  8 15:11:08 2018","600","The main experiment item","yes","Lab 1 PYSCH 5316.osexp","/Users/danieldalton/Desktop","no","mono","no","18","no","white","no","yes","768","legacy","9","79","/Users/danieldalton/Desktop/DD Subject 1.csv","legacy","Jazzy James","3.1.9","0","h","NA","h","NA","h","h","542","NA","14852","NA","37063","542","2","legacy","1024","2","48000","-16","experiment","SSHSS","1","odd","38867","195692","NA","210086","NA","210603","180836","NA","1783","212309","211637","1750","196544","211648","211764","211764","Flanker Task","81","48146","90","yes","1024"
"90.1098901099","90.1098901099","534.604395604","534.604395604","black","no","legacy","legacy","legacy","0","congruent","uniform","1","undefined","1","h","0","0","0","90","0","90","0","0","0","90","90","0","90","90","90","90","Sat Sep  8 15:11:08 2018","600","The main experiment item","yes","Lab 1 PYSCH 5316.osexp","/Users/danieldalton/Desktop","no","mono","no","18","no","white","no","yes","768","legacy","10","79","/Users/danieldalton/Desktop/DD Subject 1.csv","legacy","Jazzy James","3.1.9","0","h","NA","h","NA","h","h","503","NA","14852","NA","37063","503","2","legacy","1024","2","48000","-16","experiment","HHHHH","1","odd","38867","195692","NA","210086","NA","212324","180836","NA","1783","213994","213361","1750","196544","213373","213488","213488","Flanker Task","82","48649","91","yes","1024"
"89.1304347826","89.1304347826","532.043478261","532.043478261","black","no","legacy","legacy","legacy","0","conguent","uniform","0","undefined","0","s","0","0","0","91","0","91","0","0","0","91","91","0","91","91","91","91","Sat Sep  8 15:11:08 2018","600","The main experiment item","yes","Lab 1 PYSCH 5316.osexp","/Users/danieldalton/Desktop","no","mono","no","18","no","white","no","yes","768","legacy","11","79","/Users/danieldalton/Desktop/DD Subject 1.csv","legacy","Jazzy James","3.1.9","0","h","NA","h","NA","h","h","299","NA","14852","NA","37063","299","2","legacy","1024","2","48000","-16","experiment","SSSSS","1","odd","38867","195692","NA","210086","NA","214008","180836","NA","1783","215475","215045","1750","196544","215056","215171","215171","Flanker Task","82","48948","92","yes","1024"
"88.1720430108","88.1720430108","529.784946237","529.784946237","black","no","legacy","legacy","legacy","0","congruent","uniform","0","undefined","0","h","0","0","0","92","0","92","0","0","0","92","92","0","92","92","92","92","Sat Sep  8 15:11:08 2018","600","The main experiment item","yes","Lab 1 PYSCH 5316.osexp","/Users/danieldalton/Desktop","no","mono","no","18","no","white","no","yes","768","legacy","12","79","/Users/danieldalton/Desktop/DD Subject 1.csv","legacy","Jazzy James","3.1.9","0","s","NA","h","NA","h","s","322","NA","14852","NA","37063","322","2","legacy","1024","2","48000","-16","experiment","HHHHH","1","odd","38867","195692","NA","215490","NA","216000","180836","NA","1783","217486","217034","1750","196544","217045","217161","217161","Flanker Task","82","49270","93","yes","1024"
"88.2978723404","88.2978723404","530.808510638","530.808510638","black","no","legacy","legacy","legacy","0","incongurent","uniform","1","undefined","1","h","0","0","0","93","0","93","0","0","0","93","93","0","93","93","93","93","Sat Sep  8 15:11:08 2018","600","The main experiment item","yes","Lab 1 PYSCH 5316.osexp","/Users/danieldalton/Desktop","no","mono","no","18","no","white","no","yes","768","legacy","13","79","/Users/danieldalton/Desktop/DD Subject 1.csv","legacy","Jazzy James","3.1.9","0","h","NA","h","NA","h","h","626","NA","14852","NA","37063","626","2","legacy","1024","2","48000","-16","experiment","SSHSS","1","odd","38867","195692","NA","217500","NA","218014","180836","NA","1783","219808","219055","1750","196544","219066","219178","219178","Flanker Task","83","49896","94","yes","1024"
"88.4210526316","88.4210526316","531.957894737","531.957894737","black","no","legacy","legacy","legacy","0","incongruent","uniform","1","undefined","1","s","0","0","0","94","0","94","0","0","0","94","94","0","94","94","94","94","Sat Sep  8 15:11:08 2018","600","The main experiment item","yes","Lab 1 PYSCH 5316.osexp","/Users/danieldalton/Desktop","no","mono","no","18","no","white","no","yes","768","legacy","14","79","/Users/danieldalton/Desktop/DD Subject 1.csv","legacy","Jazzy James","3.1.9","0","s","NA","h","NA","h","s","640","NA","14852","NA","37063","640","2","legacy","1024","2","48000","-16","experiment","HHSHH","1","odd","38867","195692","NA","217500","NA","220334","180836","NA","1783","222141","221367","1750","219823","221378","221498","221498","Flanker Task","84","50536","95","yes","1024"
"87.5","87.5","528.270833333","528.270833333","black","no","legacy","legacy","legacy","0","incongurent","uniform","0","undefined","0","h","0","0","0","95","0","95","0","0","0","95","95","0","95","95","95","95","Sat Sep  8 15:11:08 2018","600","The main experiment item","yes","Lab 1 PYSCH 5316.osexp","/Users/danieldalton/Desktop","no","mono","no","18","no","white","no","yes","768","legacy","15","79","/Users/danieldalton/Desktop/DD Subject 1.csv","legacy","Jazzy James","3.1.9","0","s","NA","h","NA","h","s","178","NA","14852","NA","37063","178","2","legacy","1024","2","48000","-16","experiment","SSHSS","1","odd","38867","195692","NA","217500","NA","222669","180836","NA","1783","224015","223703","1750","222155","223714","223835","223835","Flanker Task","84","50714","96","yes","1024"
"86.5979381443","86.5979381443","525.969072165","525.969072165","black","no","legacy","legacy","legacy","0","incongruent","uniform","0","undefined","0","s","0","0","0","96","0","96","0","0","0","96","96","0","96","96","96","96","Sat Sep  8 15:11:08 2018","600","The main experiment item","yes","Lab 1 PYSCH 5316.osexp","/Users/danieldalton/Desktop","no","mono","no","18","no","white","no","yes","768","legacy","16","79","/Users/danieldalton/Desktop/DD Subject 1.csv","legacy","Jazzy James","3.1.9","0","h","NA","h","NA","h","h","305","NA","14852","NA","37063","305","2","legacy","1024","2","48000","-16","experiment","HHSHH","1","odd","38867","195692","NA","224029","NA","224547","180836","NA","1783","226013","225581","1750","222155","225591","225706","225706","Flanker Task","84","51019","97","yes","1024"
"86.7346938776","86.7346938776","523.683673469","523.683673469","black","no","legacy","legacy","legacy","0","incongruent","uniform","1","undefined","1","s","0","0","0","97","0","97","0","0","0","97","97","0","97","97","97","97","Sat Sep  8 15:11:08 2018","600","The main experiment item","yes","Lab 1 PYSCH 5316.osexp","/Users/danieldalton/Desktop","no","mono","no","18","no","white","no","yes","768","legacy","17","79","/Users/danieldalton/Desktop/DD Subject 1.csv","legacy","Jazzy James","3.1.9","0","s","NA","h","NA","h","s","302","NA","14852","NA","37063","302","2","legacy","1024","2","48000","-16","experiment","HHSHH","1","odd","38867","195692","NA","226028","NA","226544","180836","NA","1783","228012","227581","1750","222155","227592","227707","227706","Flanker Task","85","51321","98","yes","1024"
"86.8686868687","86.8686868687","523.151515152","523.151515152","black","no","legacy","legacy","legacy","0","congruent","uniform","1","undefined","1","h","0","0","0","98","0","98","0","0","0","98","98","0","98","98","98","98","Sat Sep  8 15:11:08 2018","600","The main experiment item","yes","Lab 1 PYSCH 5316.osexp","/Users/danieldalton/Desktop","no","mono","no","18","no","white","no","yes","768","legacy","18","79","/Users/danieldalton/Desktop/DD Subject 1.csv","legacy","Jazzy James","3.1.9","0","h","NA","h","NA","h","h","471","NA","14852","NA","37063","471","2","legacy","1024","2","48000","-16","experiment","HHHHH","1","odd","38867","195692","NA","226028","NA","228026","180836","NA","1783","229663","229062","1750","222155","229073","229189","229189","Flanker Task","86","51792","99","yes","1024"
"86","86","521.89","521.89","black","no","legacy","legacy","legacy","0","incongurent","uniform","0","undefined","0","h","0","0","0","99","0","99","0","0","0","99","99","0","99","99","99","99","Sat Sep  8 15:11:08 2018","600","The main experiment item","yes","Lab 1 PYSCH 5316.osexp","/Users/danieldalton/Desktop","no","mono","no","18","no","white","no","yes","768","legacy","19","79","/Users/danieldalton/Desktop/DD Subject 1.csv","legacy","Jazzy James","3.1.9","0","s","NA","h","NA","h","s","397","NA","14852","NA","37063","397","2","legacy","1024","2","48000","-16","experiment","SSHSS","1","odd","38867","195692","NA","226028","NA","229677","180836","NA","1783","231241","230710","1750","222155","230721","230841","230840","Flanker Task","86","52189","100","yes","1024"
"86.1386138614","86.1386138614","522.059405941","522.059405941","black","no","legacy","legacy","legacy","0","incongurent","uniform","1","undefined","1","h","0","0","0","100","0","100","0","0","0","100","100","0","100","100","100","100","Sat Sep  8 15:11:08 2018","600","The main experiment item","yes","Lab 1 PYSCH 5316.osexp","/Users/danieldalton/Desktop","no","mono","no","18","no","white","no","yes","768","legacy","20","79","/Users/danieldalton/Desktop/DD Subject 1.csv","legacy","Jazzy James","3.1.9","0","h","NA","h","NA","h","h","539","NA","14852","NA","37063","539","2","legacy","1024","2","48000","-16","experiment","SSHSS","1","odd","38867","195692","NA","231258","NA","231773","180836","NA","1783","233475","232808","1750","222155","232819","232933","232933","Flanker Task","87","52728","101","yes","1024"
"86.2745098039","86.2745098039","522.411764706","522.411764706","black","no","legacy","legacy","legacy","0","incongruent","uniform","1","undefined","1","s","0","0","0","101","0","101","0","0","0","101","101","0","101","101","101","101","Sat Sep  8 15:11:08 2018","600","The main experiment item","yes","Lab 1 PYSCH 5316.osexp","/Users/danieldalton/Desktop","no","mono","no","18","no","white","no","yes","768","legacy","21","79","/Users/danieldalton/Desktop/DD Subject 1.csv","legacy","Jazzy James","3.1.9","0","s","NA","h","NA","h","s","558","NA","14852","NA","37063","558","2","legacy","1024","2","48000","-16","experiment","HHSHH","1","odd","38867","195692","NA","231258","NA","233489","180836","NA","1783","235217","234525","1750","222155","234536","234656","234656","Flanker Task","88","53286","102","yes","1024"
"86.4077669903","86.4077669903","521.766990291","521.766990291","black","no","legacy","legacy","legacy","0","congruent","uniform","1","undefined","1","h","0","0","0","102","0","102","0","0","0","102","102","0","102","102","102","102","Sat Sep  8 15:11:08 2018","600","The main experiment item","yes","Lab 1 PYSCH 5316.osexp","/Users/danieldalton/Desktop","no","mono","no","18","no","white","no","yes","768","legacy","22","79","/Users/danieldalton/Desktop/DD Subject 1.csv","legacy","Jazzy James","3.1.9","0","h","NA","h","NA","h","h","456","NA","14852","NA","37063","456","2","legacy","1024","2","48000","-16","experiment","HHHHH","1","odd","38867","195692","NA","231258","NA","235231","180836","NA","1783","236850","236264","1750","222155","236275","236391","236391","Flanker Task","89","53742","103","yes","1024"
"86.5384615385","86.5384615385","521.615384615","521.615384615","black","no","legacy","legacy","legacy","0","congruent","uniform","1","undefined","1","h","0","0","0","103","0","103","0","0","0","103","103","0","103","103","103","103","Sat Sep  8 15:11:08 2018","600","The main experiment item","yes","Lab 1 PYSCH 5316.osexp","/Users/danieldalton/Desktop","no","mono","no","18","no","white","no","yes","768","legacy","23","79","/Users/danieldalton/Desktop/DD Subject 1.csv","legacy","Jazzy James","3.1.9","0","h","NA","h","NA","h","h","506","NA","14852","NA","37063","506","2","legacy","1024","2","48000","-16","experiment","HHHHH","1","odd","38867","195692","NA","231258","NA","236864","180836","NA","1783","238534","237897","1750","222155","237909","238025","238025","Flanker Task","90","54248","104","yes","1024"
"86.6666666667","86.6666666667","521.19047619","521.19047619","black","no","legacy","legacy","legacy","0","conguent","uniform","1","undefined","1","s","0","0","0","104","0","104","0","0","0","104","104","0","104","104","104","104","Sat Sep  8 15:11:08 2018","600","The main experiment item","yes","Lab 1 PYSCH 5316.osexp","/Users/danieldalton/Desktop","no","mono","no","18","no","white","no","yes","768","legacy","24","79","/Users/danieldalton/Desktop/DD Subject 1.csv","legacy","Jazzy James","3.1.9","0","s","NA","h","NA","h","s","477","NA","14852","NA","37063","477","2","legacy","1024","2","48000","-16","experiment","SSSSS","1","odd","38867","195692","NA","231258","NA","238548","180836","NA","1783","240189","239582","1750","222155","239593","239709","239709","Flanker Task","91","54725","105","yes","1024"
"86.7924528302","86.7924528302","520.20754717","520.20754717","black","no","legacy","legacy","legacy","0","congruent","uniform","1","undefined","1","h","0","0","0","105","0","105","0","0","0","105","105","0","105","105","105","105","Sat Sep  8 15:11:08 2018","600","The main experiment item","yes","Lab 1 PYSCH 5316.osexp","/Users/danieldalton/Desktop","no","mono","no","18","no","white","no","yes","768","legacy","25","79","/Users/danieldalton/Desktop/DD Subject 1.csv","legacy","Jazzy James","3.1.9","0","h","NA","h","NA","h","h","417","NA","14852","NA","37063","417","2","legacy","1024","2","48000","-16","experiment","HHHHH","1","odd","38867","195692","NA","231258","NA","240202","180836","NA","1783","241785","241238","1750","222155","241249","241365","241365","Flanker Task","92","55142","106","yes","1024"
"86.9158878505","86.9158878505","519.112149533","519.112149533","black","no","legacy","legacy","legacy","0","incongruent","uniform","1","undefined","1","s","0","0","0","106","0","106","0","0","0","106","106","0","106","106","106","106","Sat Sep  8 15:11:08 2018","600","The main experiment item","yes","Lab 1 PYSCH 5316.osexp","/Users/danieldalton/Desktop","no","mono","no","18","no","white","no","yes","768","legacy","26","79","/Users/danieldalton/Desktop/DD Subject 1.csv","legacy","Jazzy James","3.1.9","0","s","NA","h","NA","h","s","403","NA","14852","NA","37063","403","2","legacy","1024","2","48000","-16","experiment","HHSHH","1","odd","38867","195692","NA","231258","NA","241799","180836","NA","1783","243366","242833","1750","222155","242844","242960","242960","Flanker Task","93","55545","107","yes","1024"
"86.1111111111","86.1111111111","517.990740741","517.990740741","black","no","legacy","legacy","legacy","0","conguent","uniform","0","undefined","0","s","0","0","0","107","0","107","0","0","0","107","107","0","107","107","107","107","Sat Sep  8 15:11:08 2018","600","The main experiment item","yes","Lab 1 PYSCH 5316.osexp","/Users/danieldalton/Desktop","no","mono","no","18","no","white","no","yes","768","legacy","27","79","/Users/danieldalton/Desktop/DD Subject 1.csv","legacy","Jazzy James","3.1.9","0","h","NA","h","NA","h","h","398","NA","14852","NA","37063","398","2","legacy","1024","2","48000","-16","experiment","SSSSS","1","odd","38867","195692","NA","231258","NA","243379","180836","NA","1783","244941","244414","1750","222155","244425","244540","244540","Flanker Task","93","55943","108","yes","1024"
"86.2385321101","86.2385321101","517.009174312","517.009174312","black","no","legacy","legacy","legacy","0","conguent","uniform","1","undefined","1","s","0","0","0","108","0","108","0","0","0","108","108","0","108","108","108","108","Sat Sep  8 15:11:08 2018","600","The main experiment item","yes","Lab 1 PYSCH 5316.osexp","/Users/danieldalton/Desktop","no","mono","no","18","no","white","no","yes","768","legacy","28","79","/Users/danieldalton/Desktop/DD Subject 1.csv","legacy","Jazzy James","3.1.9","0","s","NA","h","NA","h","s","411","NA","14852","NA","37063","411","2","legacy","1024","2","48000","-16","experiment","SSSSS","1","odd","38867","195692","NA","244955","NA","245470","180836","NA","1783","247044","246503","1750","222155","246514","246631","246631","Flanker Task","94","56354","109","yes","1024"
"86.3636363636","86.3636363636","515.527272727","515.527272727","black","no","legacy","legacy","legacy","0","conguent","uniform","1","undefined","1","s","0","0","0","109","0","109","0","0","0","109","109","0","109","109","109","109","Sat Sep  8 15:11:08 2018","600","The main experiment item","yes","Lab 1 PYSCH 5316.osexp","/Users/danieldalton/Desktop","no","mono","no","18","no","white","no","yes","768","legacy","29","79","/Users/danieldalton/Desktop/DD Subject 1.csv","legacy","Jazzy James","3.1.9","0","s","NA","h","NA","h","s","354","NA","14852","NA","37063","354","2","legacy","1024","2","48000","-16","experiment","SSSSS","1","odd","38867","195692","NA","244955","NA","247058","180836","NA","1783","248576","248092","1750","222155","248103","248219","248219","Flanker Task","95","56708","110","yes","1024"
"86.4864864865","86.4864864865","514.693693694","514.693693694","black","no","legacy","legacy","legacy","0","congruent","uniform","1","undefined","1","h","0","0","0","110","0","110","0","0","0","110","110","0","110","110","110","110","Sat Sep  8 15:11:08 2018","600","The main experiment item","yes","Lab 1 PYSCH 5316.osexp","/Users/danieldalton/Desktop","no","mono","no","18","no","white","no","yes","768","legacy","30","79","/Users/danieldalton/Desktop/DD Subject 1.csv","legacy","Jazzy James","3.1.9","0","h","NA","h","NA","h","h","423","NA","14852","NA","37063","423","2","legacy","1024","2","48000","-16","experiment","HHHHH","1","odd","38867","195692","NA","244955","NA","248591","180836","NA","1783","250178","249624","1750","222155","249636","249752","249752","Flanker Task","96","57131","111","yes","1024"
"86.6071428571","86.6071428571","514.535714286","514.535714286","black","no","legacy","legacy","legacy","0","congruent","uniform","1","undefined","1","h","0","0","0","111","0","111","0","0","0","111","111","0","111","111","111","111","Sat Sep  8 15:11:08 2018","600","The main experiment item","yes","Lab 1 PYSCH 5316.osexp","/Users/danieldalton/Desktop","no","mono","no","18","no","white","no","yes","768","legacy","31","79","/Users/danieldalton/Desktop/DD Subject 1.csv","legacy","Jazzy James","3.1.9","0","h","NA","h","NA","h","h","497","NA","14852","NA","37063","497","2","legacy","1024","2","48000","-16","experiment","HHHHH","1","odd","38867","195692","NA","244955","NA","250192","180836","NA","1783","251854","251226","1750","222155","251237","251354","251354","Flanker Task","97","57628","112","yes","1024"
"85.8407079646","85.8407079646","513.380530973","513.380530973","black","no","legacy","legacy","legacy","0","incongurent","uniform","0","undefined","0","h","0","0","0","112","0","112","0","0","0","112","112","0","112","112","112","112","Sat Sep  8 15:11:08 2018","600","The main experiment item","yes","Lab 1 PYSCH 5316.osexp","/Users/danieldalton/Desktop","no","mono","no","18","no","white","no","yes","768","legacy","32","79","/Users/danieldalton/Desktop/DD Subject 1.csv","legacy","Jazzy James","3.1.9","0","s","NA","h","NA","h","s","384","NA","14852","NA","37063","384","2","legacy","1024","2","48000","-16","experiment","SSHSS","1","odd","38867","195692","NA","244955","NA","251868","180836","NA","1783","253430","252915","1750","222155","252926","253043","253043","Flanker Task","97","58012","113","yes","1024"
"85.9649122807","85.9649122807","512.438596491","512.438596491","black","no","legacy","legacy","legacy","0","incongurent","uniform","1","undefined","1","h","0","0","0","113","0","113","0","0","0","113","113","0","113","113","113","113","Sat Sep  8 15:11:08 2018","600","The main experiment item","yes","Lab 1 PYSCH 5316.osexp","/Users/danieldalton/Desktop","no","mono","no","18","no","white","no","yes","768","legacy","33","79","/Users/danieldalton/Desktop/DD Subject 1.csv","legacy","Jazzy James","3.1.9","0","h","NA","h","NA","h","h","406","NA","14852","NA","37063","406","2","legacy","1024","2","48000","-16","experiment","SSHSS","1","odd","38867","195692","NA","253445","NA","253958","180836","NA","1783","255532","254992","1750","222155","255003","255123","255123","Flanker Task","98","58418","114","yes","1024"
"85.2173913043","85.2173913043","511.791304348","511.791304348","black","no","legacy","legacy","legacy","0","incongruent","uniform","0","undefined","0","s","0","0","0","114","0","114","0","0","0","114","114","0","114","114","114","114","Sat Sep  8 15:11:08 2018","600","The main experiment item","yes","Lab 1 PYSCH 5316.osexp","/Users/danieldalton/Desktop","no","mono","no","18","no","white","no","yes","768","legacy","34","79","/Users/danieldalton/Desktop/DD Subject 1.csv","legacy","Jazzy James","3.1.9","0","h","NA","h","NA","h","h","438","NA","14852","NA","37063","438","2","legacy","1024","2","48000","-16","experiment","HHSHH","1","odd","38867","195692","NA","253445","NA","255546","180836","NA","1783","257156","256581","1750","222155","256592","256715","256715","Flanker Task","98","58856","115","yes","1024"
"85.3448275862","85.3448275862","512.939655172","512.939655172","black","no","legacy","legacy","legacy","0","congruent","uniform","1","undefined","1","h","0","0","0","115","0","115","0","0","0","115","115","0","115","115","115","115","Sat Sep  8 15:11:08 2018","600","The main experiment item","yes","Lab 1 PYSCH 5316.osexp","/Users/danieldalton/Desktop","no","mono","no","18","no","white","no","yes","768","legacy","35","79","/Users/danieldalton/Desktop/DD Subject 1.csv","legacy","Jazzy James","3.1.9","0","h","NA","h","NA","h","h","645","NA","14852","NA","37063","645","2","legacy","1024","2","48000","-16","experiment","HHHHH","1","odd","38867","195692","NA","257170","NA","257684","180836","NA","1783","259496","258717","1750","222155","258728","258848","258848","Flanker Task","99","59501","116","yes","1024"
"85.4700854701","85.4700854701","511.606837607","511.606837607","black","no","legacy","legacy","legacy","0","incongurent","uniform","1","undefined","1","h","0","0","0","116","0","116","0","0","0","116","116","0","116","116","116","116","Sat Sep  8 15:11:08 2018","600","The main experiment item","yes","Lab 1 PYSCH 5316.osexp","/Users/danieldalton/Desktop","no","mono","no","18","no","white","no","yes","768","legacy","36","79","/Users/danieldalton/Desktop/DD Subject 1.csv","legacy","Jazzy James","3.1.9","0","h","NA","h","NA","h","h","357","NA","14852","NA","37063","357","2","legacy","1024","2","48000","-16","experiment","SSHSS","1","odd","38867","195692","NA","257170","NA","260021","180836","NA","1783","261541","261055","1750","259510","261066","261181","261181","Flanker Task","100","59858","117","yes","1024"
"85.593220339","85.593220339","511.220338983","511.220338983","black","no","legacy","legacy","legacy","0","congruent","uniform","1","undefined","1","h","0","0","0","117","0","117","0","0","0","117","117","0","117","117","117","117","Sat Sep  8 15:11:08 2018","600","The main experiment item","yes","Lab 1 PYSCH 5316.osexp","/Users/danieldalton/Desktop","no","mono","no","18","no","white","no","yes","768","legacy","37","79","/Users/danieldalton/Desktop/DD Subject 1.csv","legacy","Jazzy James","3.1.9","0","h","NA","h","NA","h","h","466","NA","14852","NA","37063","466","2","legacy","1024","2","48000","-16","experiment","HHHHH","1","odd","38867","195692","NA","257170","NA","261555","180836","NA","1783","263183","262587","1750","259510","262598","262715","262715","Flanker Task","101","60324","118","yes","1024"
"85.7142857143","85.7142857143","511.462184874","511.462184874","black","no","legacy","legacy","legacy","0","incongurent","uniform","1","undefined","1","h","0","0","0","118","0","118","0","0","0","118","118","0","118","118","118","118","Sat Sep  8 15:11:08 2018","600","The main experiment item","yes","Lab 1 PYSCH 5316.osexp","/Users/danieldalton/Desktop","no","mono","no","18","no","white","no","yes","768","legacy","38","79","/Users/danieldalton/Desktop/DD Subject 1.csv","legacy","Jazzy James","3.1.9","0","h","NA","h","NA","h","h","540","NA","14852","NA","37063","540","2","legacy","1024","2","48000","-16","experiment","SSHSS","1","odd","38867","195692","NA","257170","NA","263197","180836","NA","1783","264904","264233","1750","259510","264244","264360","264360","Flanker Task","102","60864","119","yes","1024"
"85.8333333333","85.8333333333","512.2","512.2","black","no","legacy","legacy","legacy","0","incongurent","uniform","1","undefined","1","h","0","0","0","119","0","119","0","0","0","119","119","0","119","119","119","119","Sat Sep  8 15:11:08 2018","600","The main experiment item","yes","Lab 1 PYSCH 5316.osexp","/Users/danieldalton/Desktop","no","mono","no","18","no","white","no","yes","768","legacy","39","79","/Users/danieldalton/Desktop/DD Subject 1.csv","legacy","Jazzy James","3.1.9","0","h","NA","h","NA","h","h","600","NA","14852","NA","37063","600","2","legacy","1024","2","48000","-16","experiment","SSHSS","1","odd","38867","195692","NA","257170","NA","264920","180836","NA","1783","266691","265961","1750","259510","265975","266087","266086","Flanker Task","103","61464","120","yes","1024"
"85.9504132231","85.9504132231","511.479338843","511.479338843","black","no","legacy","legacy","legacy","0","congruent","uniform","1","undefined","1","h","0","0","0","120","0","120","0","0","0","120","120","0","120","120","120","120","Sat Sep  8 15:11:08 2018","600","The main experiment item","yes","Lab 1 PYSCH 5316.osexp","/Users/danieldalton/Desktop","no","mono","no","18","no","white","no","yes","768","legacy","40","79","/Users/danieldalton/Desktop/DD Subject 1.csv","legacy","Jazzy James","3.1.9","0","h","NA","h","NA","h","h","425","NA","14852","NA","37063","425","2","legacy","1024","2","48000","-16","experiment","HHHHH","1","odd","38867","195692","NA","257170","NA","266705","180836","NA","1783","268297","267741","1750","259510","267753","267868","267868","Flanker Task","104","61889","121","yes","1024"
"86.0655737705","86.0655737705","512.319672131","512.319672131","black","no","legacy","legacy","legacy","0","incongruent","uniform","1","undefined","1","s","0","0","0","121","0","121","0","0","0","121","121","0","121","121","121","121","Sat Sep  8 15:11:08 2018","600","The main experiment item","yes","Lab 1 PYSCH 5316.osexp","/Users/danieldalton/Desktop","no","mono","no","18","no","white","no","yes","768","legacy","41","79","/Users/danieldalton/Desktop/DD Subject 1.csv","legacy","Jazzy James","3.1.9","0","s","NA","h","NA","h","s","614","NA","14852","NA","37063","614","2","legacy","1024","2","48000","-16","experiment","HHSHH","1","odd","38867","195692","NA","257170","NA","268311","180836","NA","1783","270091","269346","1750","259510","269357","269472","269471","Flanker Task","105","62503","122","yes","1024"
"86.1788617886","86.1788617886","511.430894309","511.430894309","black","no","legacy","legacy","legacy","0","conguent","uniform","1","undefined","1","s","0","0","0","122","0","122","0","0","0","122","122","0","122","122","122","122","Sat Sep  8 15:11:08 2018","600","The main experiment item","yes","Lab 1 PYSCH 5316.osexp","/Users/danieldalton/Desktop","no","mono","no","18","no","white","no","yes","768","legacy","42","79","/Users/danieldalton/Desktop/DD Subject 1.csv","legacy","Jazzy James","3.1.9","0","s","NA","h","NA","h","s","403","NA","14852","NA","37063","403","2","legacy","1024","2","48000","-16","experiment","SSSSS","1","odd","38867","195692","NA","257170","NA","270618","180836","NA","1783","272189","271654","1750","270105","271665","271782","271782","Flanker Task","106","62906","123","yes","1024"
"86.2903225806","86.2903225806","510.290322581","510.290322581","black","no","legacy","legacy","legacy","0","incongruent","uniform","1","undefined","1","s","0","0","0","123","0","123","0","0","0","123","123","0","123","123","123","123","Sat Sep  8 15:11:08 2018","600","The main experiment item","yes","Lab 1 PYSCH 5316.osexp","/Users/danieldalton/Desktop","no","mono","no","18","no","white","no","yes","768","legacy","43","79","/Users/danieldalton/Desktop/DD Subject 1.csv","legacy","Jazzy James","3.1.9","0","s","NA","h","NA","h","s","370","NA","14852","NA","37063","370","2","legacy","1024","2","48000","-16","experiment","HHSHH","1","odd","38867","195692","NA","257170","NA","272205","180836","NA","1783","273741","273239","1750","270105","273250","273367","273367","Flanker Task","107","63276","124","yes","1024"
