"acc","accuracy","average_response_time","avg_rt","background","canvas_backend","clock_backend","color_backend","compensation","condition","coordinates","correct","correct_Instructions1","correct_Keyboard_Response","correct_response","count_Block1","count_Block2","count_Block3","count_Error_Feedback","count_Faster","count_Finish","count_Fixation","count_ISI","count_Instructions1","count_Instructions2","count_Insturctions3","count_Keyboard_Response","count_Logger","count_Sequence","count_Stimulus","count_experiment","datetime","deadline","description","disable_garbage_collection","experiment_file","experiment_path","font_bold","font_family","font_italic","font_size","font_underline","foreground","form_clicks","fullscreen","height","keyboard_backend","live_row","live_row_Block1","logfile","mouse_backend","opensesame_codename","opensesame_version","repeat_cycle","response","response_Finish","response_Instructions1","response_Instructions2","response_Insturctions3","response_Keyboard_Response","response_time","response_time_Finish","response_time_Instructions1","response_time_Instructions2","response_time_Insturctions3","response_time_Keyboard_Response","round_decimals","sampler_backend","sound_buf_size","sound_channels","sound_freq","sound_sample_size","start","stimulus","subject_nr","subject_parity","time_Block1","time_Block2","time_Block3","time_Error_Feedback","time_Faster","time_Finish","time_Fixation","time_ISI","time_Instructions1","time_Instructions2","time_Insturctions3","time_Keyboard_Response","time_Logger","time_Sequence","time_Stimulus","time_experiment","title","total_correct","total_response_time","total_responses","uniform_coordinates","width"
"100","100","1357","1357","black","legacy","legacy","legacy","0","Incongruent","uniform","1","undefined","1","h","0","0","0","0","0","0","0","0","0","0","0","0","0","0","0","0","Fri Sep  7 17:03:58 2018","1500","The main experiment item","yes","FlankerTask.osexp","/Users/emmaleemorgan/Desktop","no","mono","no","18","no","white","no","yes","768","legacy","0","0","/Users/emmaleemorgan/Desktop/EM subject-4, f, 36.csv","legacy","Kafkaesque Koffka","3.2.5","0","h","NA","s","NA","NA","h","1357","NA","33222","NA","NA","1357","2","legacy","1024","2","48000","-16","experiment","SSHSS","4","even","36855","NA","NA","NA","NA","NA","36931","NA","3624","NA","NA","37046","38405","36920","37046","3602","Flanker Task","1","1357","1","yes","1024"
"100","100","1111","1111","black","legacy","legacy","legacy","0","Incongruent","uniform","1","undefined","1","h","0","0","0","1","1","0","1","1","0","0","0","1","1","1","1","0","Fri Sep  7 17:03:58 2018","1500","The main experiment item","yes","FlankerTask.osexp","/Users/emmaleemorgan/Desktop","no","mono","no","18","no","white","no","yes","768","legacy","1","1","/Users/emmaleemorgan/Desktop/EM subject-4, f, 36.csv","legacy","Kafkaesque Koffka","3.2.5","0","h","NA","s","NA","NA","h","865","NA","33222","NA","NA","865","2","legacy","1024","2","48000","-16","experiment","SSHSS","4","even","36855","NA","NA","NA","NA","NA","39510","38424","3624","NA","NA","39620","40486","39498","39620","3602","Flanker Task","2","2222","2","yes","1024"
"100","100","953.333333333","953.333333333","black","legacy","legacy","legacy","0","Incongruent","uniform","1","undefined","1","s","0","0","0","2","2","0","2","2","0","0","0","2","2","2","2","0","Fri Sep  7 17:03:58 2018","1500","The main experiment item","yes","FlankerTask.osexp","/Users/emmaleemorgan/Desktop","no","mono","no","18","no","white","no","yes","768","legacy","2","2","/Users/emmaleemorgan/Desktop/EM subject-4, f, 36.csv","legacy","Kafkaesque Koffka","3.2.5","0","s","NA","s","NA","NA","s","638","NA","33222","NA","NA","638","2","legacy","1024","2","48000","-16","experiment","HHSHH","4","even","36855","NA","NA","NA","NA","NA","41573","40502","3624","NA","NA","41690","42330","41563","41690","3602","Flanker Task","3","2860","3","yes","1024"
"100","100","1048.25","1048.25","black","legacy","legacy","legacy","0","Congruent","uniform","1","undefined","1","h","0","0","0","3","3","0","3","3","0","0","0","3","3","3","3","0","Fri Sep  7 17:03:58 2018","1500","The main experiment item","yes","FlankerTask.osexp","/Users/emmaleemorgan/Desktop","no","mono","no","18","no","white","no","yes","768","legacy","3","3","/Users/emmaleemorgan/Desktop/EM subject-4, f, 36.csv","legacy","Kafkaesque Koffka","3.2.5","0","h","NA","s","NA","NA","h","1333","NA","33222","NA","NA","1333","2","legacy","1024","2","48000","-16","experiment","HHHHH","4","even","36855","NA","NA","NA","NA","NA","43413","42343","3624","NA","NA","43527","44861","43404","43526","3602","Flanker Task","4","4193","4","yes","1024"
"100","100","963.8","963.8","black","legacy","legacy","legacy","0","Incongruent","uniform","1","undefined","1","h","0","0","0","4","4","0","4","4","0","0","0","4","4","4","4","0","Fri Sep  7 17:03:58 2018","1500","The main experiment item","yes","FlankerTask.osexp","/Users/emmaleemorgan/Desktop","no","mono","no","18","no","white","no","yes","768","legacy","4","4","/Users/emmaleemorgan/Desktop/EM subject-4, f, 36.csv","legacy","Kafkaesque Koffka","3.2.5","0","h","NA","s","NA","NA","h","626","NA","33222","NA","NA","626","2","legacy","1024","2","48000","-16","experiment","SSHSS","4","even","36855","NA","NA","NA","NA","NA","45949","44875","3624","NA","NA","46061","46688","45939","46061","3602","Flanker Task","5","4819","5","yes","1024"
"100","100","927","927","black","legacy","legacy","legacy","0","Incongruent","uniform","1","undefined","1","s","0","0","0","5","5","0","5","5","0","0","0","5","5","5","5","0","Fri Sep  7 17:03:58 2018","1500","The main experiment item","yes","FlankerTask.osexp","/Users/emmaleemorgan/Desktop","no","mono","no","18","no","white","no","yes","768","legacy","5","5","/Users/emmaleemorgan/Desktop/EM subject-4, f, 36.csv","legacy","Kafkaesque Koffka","3.2.5","0","s","NA","s","NA","NA","s","743","NA","33222","NA","NA","743","2","legacy","1024","2","48000","-16","experiment","HHSHH","4","even","36855","NA","NA","NA","NA","NA","47773","46700","3624","NA","NA","47885","48629","47763","47885","3602","Flanker Task","6","5562","6","yes","1024"
"100","100","873","873","black","legacy","legacy","legacy","0","Incongruent","uniform","1","undefined","1","h","0","0","0","6","6","0","6","6","0","0","0","6","6","6","6","0","Fri Sep  7 17:03:58 2018","1500","The main experiment item","yes","FlankerTask.osexp","/Users/emmaleemorgan/Desktop","no","mono","no","18","no","white","no","yes","768","legacy","6","6","/Users/emmaleemorgan/Desktop/EM subject-4, f, 36.csv","legacy","Kafkaesque Koffka","3.2.5","0","h","NA","s","NA","NA","h","549","NA","33222","NA","NA","549","2","legacy","1024","2","48000","-16","experiment","SSHSS","4","even","36855","NA","NA","NA","NA","NA","49715","48642","3624","NA","NA","49827","50377","49705","49827","3602","Flanker Task","7","6111","7","yes","1024"
"100","100","848.375","848.375","black","legacy","legacy","legacy","0","Congruent","uniform","1","undefined","1","s","0","0","0","7","7","0","7","7","0","0","0","7","7","7","7","0","Fri Sep  7 17:03:58 2018","1500","The main experiment item","yes","FlankerTask.osexp","/Users/emmaleemorgan/Desktop","no","mono","no","18","no","white","no","yes","768","legacy","7","7","/Users/emmaleemorgan/Desktop/EM subject-4, f, 36.csv","legacy","Kafkaesque Koffka","3.2.5","0","s","NA","s","NA","NA","s","676","NA","33222","NA","NA","676","2","legacy","1024","2","48000","-16","experiment","SSSSS","4","even","36855","NA","NA","NA","NA","NA","51462","50391","3624","NA","NA","51574","52251","51451","51574","3602","Flanker Task","8","6787","8","yes","1024"
"100","100","818.888888889","818.888888889","black","legacy","legacy","legacy","0","Congruent","uniform","1","undefined","1","h","0","0","0","8","8","0","8","8","0","0","0","8","8","8","8","0","Fri Sep  7 17:03:58 2018","1500","The main experiment item","yes","FlankerTask.osexp","/Users/emmaleemorgan/Desktop","no","mono","no","18","no","white","no","yes","768","legacy","8","8","/Users/emmaleemorgan/Desktop/EM subject-4, f, 36.csv","legacy","Kafkaesque Koffka","3.2.5","0","h","NA","s","NA","NA","h","583","NA","33222","NA","NA","583","2","legacy","1024","2","48000","-16","experiment","HHHHH","4","even","36855","NA","NA","NA","NA","NA","53332","52264","3624","NA","NA","53444","54028","53322","53444","3602","Flanker Task","9","7370","9","yes","1024"
"100","100","792","792","black","legacy","legacy","legacy","0","Congruent","uniform","1","undefined","1","h","0","0","0","9","9","0","9","9","0","0","0","9","9","9","9","0","Fri Sep  7 17:03:58 2018","1500","The main experiment item","yes","FlankerTask.osexp","/Users/emmaleemorgan/Desktop","no","mono","no","18","no","white","no","yes","768","legacy","9","9","/Users/emmaleemorgan/Desktop/EM subject-4, f, 36.csv","legacy","Kafkaesque Koffka","3.2.5","0","h","NA","s","NA","NA","h","550","NA","33222","NA","NA","550","2","legacy","1024","2","48000","-16","experiment","HHHHH","4","even","36855","NA","NA","NA","NA","NA","55113","54041","3624","NA","NA","55223","55774","55102","55223","3602","Flanker Task","10","7920","10","yes","1024"
"100","100","780.636363636","780.636363636","black","legacy","legacy","legacy","0","Incongruent","uniform","1","undefined","1","s","0","0","0","10","10","0","10","10","0","0","0","10","10","10","10","0","Fri Sep  7 17:03:58 2018","1500","The main experiment item","yes","FlankerTask.osexp","/Users/emmaleemorgan/Desktop","no","mono","no","18","no","white","no","yes","768","legacy","10","10","/Users/emmaleemorgan/Desktop/EM subject-4, f, 36.csv","legacy","Kafkaesque Koffka","3.2.5","0","s","NA","s","NA","NA","s","667","NA","33222","NA","NA","667","2","legacy","1024","2","48000","-16","experiment","HHSHH","4","even","36855","NA","NA","NA","NA","NA","56860","55787","3624","NA","NA","56972","57640","56849","56972","3602","Flanker Task","11","8587","11","yes","1024"
"100","100","771","771","black","legacy","legacy","legacy","0","Incongruent","uniform","1","undefined","1","s","0","0","0","11","11","0","11","11","0","0","0","11","11","11","11","0","Fri Sep  7 17:03:58 2018","1500","The main experiment item","yes","FlankerTask.osexp","/Users/emmaleemorgan/Desktop","no","mono","no","18","no","white","no","yes","768","legacy","11","11","/Users/emmaleemorgan/Desktop/EM subject-4, f, 36.csv","legacy","Kafkaesque Koffka","3.2.5","0","s","NA","s","NA","NA","s","665","NA","33222","NA","NA","665","2","legacy","1024","2","48000","-16","experiment","HHSHH","4","even","36855","NA","NA","NA","NA","NA","58728","57653","3624","NA","NA","58840","59506","58717","58840","3602","Flanker Task","12","9252","12","yes","1024"
"100","100","746.846153846","746.846153846","black","legacy","legacy","legacy","0","Congruent","uniform","1","undefined","1","s","0","0","0","12","12","0","12","12","0","0","0","12","12","12","12","0","Fri Sep  7 17:03:58 2018","1500","The main experiment item","yes","FlankerTask.osexp","/Users/emmaleemorgan/Desktop","no","mono","no","18","no","white","no","yes","768","legacy","12","12","/Users/emmaleemorgan/Desktop/EM subject-4, f, 36.csv","legacy","Kafkaesque Koffka","3.2.5","0","s","NA","s","NA","NA","s","457","NA","33222","NA","NA","457","2","legacy","1024","2","48000","-16","experiment","SSSSS","4","even","36855","NA","NA","NA","NA","NA","60587","59520","3624","NA","NA","60699","61157","60577","60699","3602","Flanker Task","13","9709","13","yes","1024"
"100","100","727.5","727.5","black","legacy","legacy","legacy","0","Incongruent","uniform","1","undefined","1","s","0","0","0","13","13","0","13","13","0","0","0","13","13","13","13","0","Fri Sep  7 17:03:58 2018","1500","The main experiment item","yes","FlankerTask.osexp","/Users/emmaleemorgan/Desktop","no","mono","no","18","no","white","no","yes","768","legacy","13","13","/Users/emmaleemorgan/Desktop/EM subject-4, f, 36.csv","legacy","Kafkaesque Koffka","3.2.5","0","s","NA","s","NA","NA","s","476","NA","33222","NA","NA","476","2","legacy","1024","2","48000","-16","experiment","HHSHH","4","even","36855","NA","NA","NA","NA","NA","62240","61170","3624","NA","NA","62355","62832","62230","62355","3602","Flanker Task","14","10185","14","yes","1024"
"100","100","722.6","722.6","black","legacy","legacy","legacy","0","Congruent","uniform","1","undefined","1","h","0","0","0","14","14","0","14","14","0","0","0","14","14","14","14","0","Fri Sep  7 17:03:58 2018","1500","The main experiment item","yes","FlankerTask.osexp","/Users/emmaleemorgan/Desktop","no","mono","no","18","no","white","no","yes","768","legacy","14","14","/Users/emmaleemorgan/Desktop/EM subject-4, f, 36.csv","legacy","Kafkaesque Koffka","3.2.5","0","h","NA","s","NA","NA","h","654","NA","33222","NA","NA","654","2","legacy","1024","2","48000","-16","experiment","HHHHH","4","even","36855","NA","NA","NA","NA","NA","63919","62847","3624","NA","NA","64031","64686","63909","64030","3602","Flanker Task","15","10839","15","yes","1024"
"100","100","719.5","719.5","black","legacy","legacy","legacy","0","Congruent","uniform","1","undefined","1","h","0","0","0","15","15","0","15","15","0","0","0","15","15","15","15","0","Fri Sep  7 17:03:58 2018","1500","The main experiment item","yes","FlankerTask.osexp","/Users/emmaleemorgan/Desktop","no","mono","no","18","no","white","no","yes","768","legacy","15","15","/Users/emmaleemorgan/Desktop/EM subject-4, f, 36.csv","legacy","Kafkaesque Koffka","3.2.5","0","h","NA","s","NA","NA","h","673","NA","33222","NA","NA","673","2","legacy","1024","2","48000","-16","experiment","HHHHH","4","even","36855","NA","NA","NA","NA","NA","65771","64699","3624","NA","NA","65883","66557","65761","65883","3602","Flanker Task","16","11512","16","yes","1024"
"100","100","708.176470588","708.176470588","black","legacy","legacy","legacy","0","Congruent","uniform","1","undefined","1","h","0","0","0","16","16","0","16","16","0","0","0","16","16","16","16","0","Fri Sep  7 17:03:58 2018","1500","The main experiment item","yes","FlankerTask.osexp","/Users/emmaleemorgan/Desktop","no","mono","no","18","no","white","no","yes","768","legacy","16","16","/Users/emmaleemorgan/Desktop/EM subject-4, f, 36.csv","legacy","Kafkaesque Koffka","3.2.5","0","h","NA","s","NA","NA","h","527","NA","33222","NA","NA","527","2","legacy","1024","2","48000","-16","experiment","HHHHH","4","even","36855","NA","NA","NA","NA","NA","67645","66570","3624","NA","NA","67760","68288","67634","67760","3602","Flanker Task","17","12039","17","yes","1024"
"100","100","702.666666667","702.666666667","black","legacy","legacy","legacy","0","Incongruent","uniform","1","undefined","1","s","0","0","0","17","17","0","17","17","0","0","0","17","17","17","17","0","Fri Sep  7 17:03:58 2018","1500","The main experiment item","yes","FlankerTask.osexp","/Users/emmaleemorgan/Desktop","no","mono","no","18","no","white","no","yes","768","legacy","17","17","/Users/emmaleemorgan/Desktop/EM subject-4, f, 36.csv","legacy","Kafkaesque Koffka","3.2.5","0","s","NA","s","NA","NA","s","609","NA","33222","NA","NA","609","2","legacy","1024","2","48000","-16","experiment","HHSHH","4","even","36855","NA","NA","NA","NA","NA","69374","68302","3624","NA","NA","69485","70095","69364","69485","3602","Flanker Task","18","12648","18","yes","1024"
"100","100","698.263157895","698.263157895","black","legacy","legacy","legacy","0","Incongruent","uniform","1","undefined","1","h","0","0","0","18","18","0","18","18","0","0","0","18","18","18","18","0","Fri Sep  7 17:03:58 2018","1500","The main experiment item","yes","FlankerTask.osexp","/Users/emmaleemorgan/Desktop","no","mono","no","18","no","white","no","yes","768","legacy","18","18","/Users/emmaleemorgan/Desktop/EM subject-4, f, 36.csv","legacy","Kafkaesque Koffka","3.2.5","0","h","NA","s","NA","NA","h","619","NA","33222","NA","NA","619","2","legacy","1024","2","48000","-16","experiment","SSHSS","4","even","36855","NA","NA","NA","NA","NA","71178","70108","3624","NA","NA","71290","71910","71168","71290","3602","Flanker Task","19","13267","19","yes","1024"
"100","100","697.25","697.25","black","legacy","legacy","legacy","0","Incongruent","uniform","1","undefined","1","h","0","0","0","19","19","0","19","19","0","0","0","19","19","19","19","0","Fri Sep  7 17:03:58 2018","1500","The main experiment item","yes","FlankerTask.osexp","/Users/emmaleemorgan/Desktop","no","mono","no","18","no","white","no","yes","768","legacy","19","19","/Users/emmaleemorgan/Desktop/EM subject-4, f, 36.csv","legacy","Kafkaesque Koffka","3.2.5","0","h","NA","s","NA","NA","h","678","NA","33222","NA","NA","678","2","legacy","1024","2","48000","-16","experiment","SSHSS","4","even","36855","NA","NA","NA","NA","NA","72996","71923","3624","NA","NA","73107","73786","72985","73107","3602","Flanker Task","20","13945","20","yes","1024"
"100","100","696.428571429","696.428571429","black","legacy","legacy","legacy","0","Incongruent","uniform","1","undefined","1","s","0","0","0","20","20","0","20","20","0","0","0","20","20","20","20","0","Fri Sep  7 17:03:58 2018","1500","The main experiment item","yes","FlankerTask.osexp","/Users/emmaleemorgan/Desktop","no","mono","no","18","no","white","no","yes","768","legacy","20","20","/Users/emmaleemorgan/Desktop/EM subject-4, f, 36.csv","legacy","Kafkaesque Koffka","3.2.5","0","s","NA","s","NA","NA","s","680","NA","33222","NA","NA","680","2","legacy","1024","2","48000","-16","experiment","HHSHH","4","even","36855","NA","NA","NA","NA","NA","74871","73800","3624","NA","NA","74983","75664","74861","74983","3602","Flanker Task","21","14625","21","yes","1024"
"100","100","689.681818182","689.681818182","black","legacy","legacy","legacy","0","Congruent","uniform","1","undefined","1","h","0","0","0","21","21","0","21","21","0","0","0","21","21","21","21","0","Fri Sep  7 17:03:58 2018","1500","The main experiment item","yes","FlankerTask.osexp","/Users/emmaleemorgan/Desktop","no","mono","no","18","no","white","no","yes","768","legacy","21","21","/Users/emmaleemorgan/Desktop/EM subject-4, f, 36.csv","legacy","Kafkaesque Koffka","3.2.5","0","h","NA","s","NA","NA","h","548","NA","33222","NA","NA","548","2","legacy","1024","2","48000","-16","experiment","HHHHH","4","even","36855","NA","NA","NA","NA","NA","76751","75680","3624","NA","NA","76863","77412","76741","76863","3602","Flanker Task","22","15173","22","yes","1024"
"100","100","686.217391304","686.217391304","black","legacy","legacy","legacy","0","Incongruent","uniform","1","undefined","1","s","0","0","0","22","22","0","22","22","0","0","0","22","22","22","22","0","Fri Sep  7 17:03:58 2018","1500","The main experiment item","yes","FlankerTask.osexp","/Users/emmaleemorgan/Desktop","no","mono","no","18","no","white","no","yes","768","legacy","22","22","/Users/emmaleemorgan/Desktop/EM subject-4, f, 36.csv","legacy","Kafkaesque Koffka","3.2.5","0","s","NA","s","NA","NA","s","610","NA","33222","NA","NA","610","2","legacy","1024","2","48000","-16","experiment","HHSHH","4","even","36855","NA","NA","NA","NA","NA","78498","77425","3624","NA","NA","78612","79223","78487","78612","3602","Flanker Task","23","15783","23","yes","1024"
"100","100","681.333333333","681.333333333","black","legacy","legacy","legacy","0","Congruent","uniform","1","undefined","1","h","0","0","0","23","23","0","23","23","0","0","0","23","23","23","23","0","Fri Sep  7 17:03:58 2018","1500","The main experiment item","yes","FlankerTask.osexp","/Users/emmaleemorgan/Desktop","no","mono","no","18","no","white","no","yes","768","legacy","23","23","/Users/emmaleemorgan/Desktop/EM subject-4, f, 36.csv","legacy","Kafkaesque Koffka","3.2.5","0","h","NA","s","NA","NA","h","569","NA","33222","NA","NA","569","2","legacy","1024","2","48000","-16","experiment","HHHHH","4","even","36855","NA","NA","NA","NA","NA","80309","79236","3624","NA","NA","80423","80993","80299","80423","3602","Flanker Task","24","16352","24","yes","1024"
"100","100","677.96","677.96","black","legacy","legacy","legacy","0","Incongruent","uniform","1","undefined","1","h","0","0","0","24","24","0","24","24","0","0","0","24","24","24","24","0","Fri Sep  7 17:03:58 2018","1500","The main experiment item","yes","FlankerTask.osexp","/Users/emmaleemorgan/Desktop","no","mono","no","18","no","white","no","yes","768","legacy","24","24","/Users/emmaleemorgan/Desktop/EM subject-4, f, 36.csv","legacy","Kafkaesque Koffka","3.2.5","0","h","NA","s","NA","NA","h","597","NA","33222","NA","NA","597","2","legacy","1024","2","48000","-16","experiment","SSHSS","4","even","36855","NA","NA","NA","NA","NA","82078","81007","3624","NA","NA","82189","82787","82068","82189","3602","Flanker Task","25","16949","25","yes","1024"
"100","100","670.730769231","670.730769231","black","legacy","legacy","legacy","0","Congruent","uniform","1","undefined","1","s","0","0","0","25","25","0","25","25","0","0","0","25","25","25","25","0","Fri Sep  7 17:03:58 2018","1500","The main experiment item","yes","FlankerTask.osexp","/Users/emmaleemorgan/Desktop","no","mono","no","18","no","white","no","yes","768","legacy","25","25","/Users/emmaleemorgan/Desktop/EM subject-4, f, 36.csv","legacy","Kafkaesque Koffka","3.2.5","0","s","NA","s","NA","NA","s","490","NA","33222","NA","NA","490","2","legacy","1024","2","48000","-16","experiment","SSSSS","4","even","36855","NA","NA","NA","NA","NA","83872","82801","3624","NA","NA","83982","84473","83862","83982","3602","Flanker Task","26","17439","26","yes","1024"
"100","100","670.444444444","670.444444444","black","legacy","legacy","legacy","0","Incongruent","uniform","1","undefined","1","h","0","0","0","26","26","0","26","26","0","0","0","26","26","26","26","0","Fri Sep  7 17:03:58 2018","1500","The main experiment item","yes","FlankerTask.osexp","/Users/emmaleemorgan/Desktop","no","mono","no","18","no","white","no","yes","768","legacy","26","26","/Users/emmaleemorgan/Desktop/EM subject-4, f, 36.csv","legacy","Kafkaesque Koffka","3.2.5","0","h","NA","s","NA","NA","h","663","NA","33222","NA","NA","663","2","legacy","1024","2","48000","-16","experiment","SSHSS","4","even","36855","NA","NA","NA","NA","NA","85557","84487","3624","NA","NA","85667","86332","85547","85667","3602","Flanker Task","27","18102","27","yes","1024"
"100","100","670.75","670.75","black","legacy","legacy","legacy","0","Incongruent","uniform","1","undefined","1","s","0","0","0","27","27","0","27","27","0","0","0","27","27","27","27","0","Fri Sep  7 17:03:58 2018","1500","The main experiment item","yes","FlankerTask.osexp","/Users/emmaleemorgan/Desktop","no","mono","no","18","no","white","no","yes","768","legacy","27","27","/Users/emmaleemorgan/Desktop/EM subject-4, f, 36.csv","legacy","Kafkaesque Koffka","3.2.5","0","s","NA","s","NA","NA","s","679","NA","33222","NA","NA","679","2","legacy","1024","2","48000","-16","experiment","HHSHH","4","even","36855","NA","NA","NA","NA","NA","87415","86344","3624","NA","NA","87530","88210","87405","87530","3602","Flanker Task","28","18781","28","yes","1024"
"100","100","667.793103448","667.793103448","black","legacy","legacy","legacy","0","Incongruent","uniform","1","undefined","1","s","0","0","0","28","28","0","28","28","0","0","0","28","28","28","28","0","Fri Sep  7 17:03:58 2018","1500","The main experiment item","yes","FlankerTask.osexp","/Users/emmaleemorgan/Desktop","no","mono","no","18","no","white","no","yes","768","legacy","28","28","/Users/emmaleemorgan/Desktop/EM subject-4, f, 36.csv","legacy","Kafkaesque Koffka","3.2.5","0","s","NA","s","NA","NA","s","585","NA","33222","NA","NA","585","2","legacy","1024","2","48000","-16","experiment","HHSHH","4","even","36855","NA","NA","NA","NA","NA","89295","88224","3624","NA","NA","89410","89996","89284","89410","3602","Flanker Task","29","19366","29","yes","1024"
"100","100","666.766666667","666.766666667","black","legacy","legacy","legacy","0","Congruent","uniform","1","undefined","1","s","0","0","0","29","29","0","29","29","0","0","0","29","29","29","29","0","Fri Sep  7 17:03:58 2018","1500","The main experiment item","yes","FlankerTask.osexp","/Users/emmaleemorgan/Desktop","no","mono","no","18","no","white","no","yes","768","legacy","29","29","/Users/emmaleemorgan/Desktop/EM subject-4, f, 36.csv","legacy","Kafkaesque Koffka","3.2.5","0","s","NA","s","NA","NA","s","637","NA","33222","NA","NA","637","2","legacy","1024","2","48000","-16","experiment","SSSSS","4","even","36855","NA","NA","NA","NA","NA","91081","90008","3624","NA","NA","91194","91832","91071","91194","3602","Flanker Task","30","20003","30","yes","1024"
"100","100","665.451612903","665.451612903","black","legacy","legacy","legacy","0","Incongruent","uniform","1","undefined","1","h","0","0","0","30","30","0","30","30","0","0","0","30","30","30","30","0","Fri Sep  7 17:03:58 2018","1500","The main experiment item","yes","FlankerTask.osexp","/Users/emmaleemorgan/Desktop","no","mono","no","18","no","white","no","yes","768","legacy","30","30","/Users/emmaleemorgan/Desktop/EM subject-4, f, 36.csv","legacy","Kafkaesque Koffka","3.2.5","0","h","NA","s","NA","NA","h","626","NA","33222","NA","NA","626","2","legacy","1024","2","48000","-16","experiment","SSHSS","4","even","36855","NA","NA","NA","NA","NA","92917","91845","3624","NA","NA","93029","93656","92907","93029","3602","Flanker Task","31","20629","31","yes","1024"
"100","100","665.34375","665.34375","black","legacy","legacy","legacy","0","Congruent","uniform","1","undefined","1","s","0","0","0","31","31","0","31","31","0","0","0","31","31","31","31","0","Fri Sep  7 17:03:58 2018","1500","The main experiment item","yes","FlankerTask.osexp","/Users/emmaleemorgan/Desktop","no","mono","no","18","no","white","no","yes","768","legacy","31","31","/Users/emmaleemorgan/Desktop/EM subject-4, f, 36.csv","legacy","Kafkaesque Koffka","3.2.5","0","s","NA","s","NA","NA","s","662","NA","33222","NA","NA","662","2","legacy","1024","2","48000","-16","experiment","SSSSS","4","even","36855","NA","NA","NA","NA","NA","94741","93669","3624","NA","NA","94853","95516","94731","94853","3602","Flanker Task","32","21291","32","yes","1024"
"100","100","660.333333333","660.333333333","black","legacy","legacy","legacy","0","Incongruent","uniform","1","undefined","1","h","0","0","0","32","32","0","32","32","0","0","0","32","32","32","32","0","Fri Sep  7 17:03:58 2018","1500","The main experiment item","yes","FlankerTask.osexp","/Users/emmaleemorgan/Desktop","no","mono","no","18","no","white","no","yes","768","legacy","32","32","/Users/emmaleemorgan/Desktop/EM subject-4, f, 36.csv","legacy","Kafkaesque Koffka","3.2.5","0","h","NA","s","NA","NA","h","500","NA","33222","NA","NA","500","2","legacy","1024","2","48000","-16","experiment","SSHSS","4","even","36855","NA","NA","NA","NA","NA","96599","95529","3624","NA","NA","96709","97210","96588","96709","3602","Flanker Task","33","21791","33","yes","1024"
"100","100","653.647058824","653.647058824","black","legacy","legacy","legacy","0","Congruent","uniform","1","undefined","1","s","0","0","0","33","33","0","33","33","0","0","0","33","33","33","33","0","Fri Sep  7 17:03:58 2018","1500","The main experiment item","yes","FlankerTask.osexp","/Users/emmaleemorgan/Desktop","no","mono","no","18","no","white","no","yes","768","legacy","33","33","/Users/emmaleemorgan/Desktop/EM subject-4, f, 36.csv","legacy","Kafkaesque Koffka","3.2.5","0","s","NA","s","NA","NA","s","433","NA","33222","NA","NA","433","2","legacy","1024","2","48000","-16","experiment","SSSSS","4","even","36855","NA","NA","NA","NA","NA","98291","97223","3624","NA","NA","98402","98836","98280","98402","3602","Flanker Task","34","22224","34","yes","1024"
"100","100","647.942857143","647.942857143","black","legacy","legacy","legacy","0","Congruent","uniform","1","undefined","1","h","0","0","0","34","34","0","34","34","0","0","0","34","34","34","34","0","Fri Sep  7 17:03:58 2018","1500","The main experiment item","yes","FlankerTask.osexp","/Users/emmaleemorgan/Desktop","no","mono","no","18","no","white","no","yes","768","legacy","34","34","/Users/emmaleemorgan/Desktop/EM subject-4, f, 36.csv","legacy","Kafkaesque Koffka","3.2.5","0","h","NA","s","NA","NA","h","454","NA","33222","NA","NA","454","2","legacy","1024","2","48000","-16","experiment","HHHHH","4","even","36855","NA","NA","NA","NA","NA","99919","98849","3624","NA","NA","100031","100486","99909","100030","3602","Flanker Task","35","22678","35","yes","1024"
"100","100","644.472222222","644.472222222","black","legacy","legacy","legacy","0","Congruent","uniform","1","undefined","1","s","0","0","0","35","35","0","35","35","0","0","0","35","35","35","35","0","Fri Sep  7 17:03:58 2018","1500","The main experiment item","yes","FlankerTask.osexp","/Users/emmaleemorgan/Desktop","no","mono","no","18","no","white","no","yes","768","legacy","35","35","/Users/emmaleemorgan/Desktop/EM subject-4, f, 36.csv","legacy","Kafkaesque Koffka","3.2.5","0","s","NA","s","NA","NA","s","523","NA","33222","NA","NA","523","2","legacy","1024","2","48000","-16","experiment","SSSSS","4","even","36855","NA","NA","NA","NA","NA","101577","100499","3624","NA","NA","101687","102211","101566","101687","3602","Flanker Task","36","23201","36","yes","1024"
"100","100","643.837837838","643.837837838","black","legacy","legacy","legacy","0","Incongruent","uniform","1","undefined","1","s","0","0","0","36","36","0","36","36","0","0","0","36","36","36","36","0","Fri Sep  7 17:03:58 2018","1500","The main experiment item","yes","FlankerTask.osexp","/Users/emmaleemorgan/Desktop","no","mono","no","18","no","white","no","yes","768","legacy","36","36","/Users/emmaleemorgan/Desktop/EM subject-4, f, 36.csv","legacy","Kafkaesque Koffka","3.2.5","0","s","NA","s","NA","NA","s","621","NA","33222","NA","NA","621","2","legacy","1024","2","48000","-16","experiment","HHSHH","4","even","36855","NA","NA","NA","NA","NA","103293","102225","3624","NA","NA","103407","104029","103283","103406","3602","Flanker Task","37","23822","37","yes","1024"
"100","100","645.263157895","645.263157895","black","legacy","legacy","legacy","0","Incongruent","uniform","1","undefined","1","h","0","0","0","37","37","0","37","37","0","0","0","37","37","37","37","0","Fri Sep  7 17:03:58 2018","1500","The main experiment item","yes","FlankerTask.osexp","/Users/emmaleemorgan/Desktop","no","mono","no","18","no","white","no","yes","768","legacy","37","37","/Users/emmaleemorgan/Desktop/EM subject-4, f, 36.csv","legacy","Kafkaesque Koffka","3.2.5","0","h","NA","s","NA","NA","h","698","NA","33222","NA","NA","698","2","legacy","1024","2","48000","-16","experiment","SSHSS","4","even","36855","NA","NA","NA","NA","NA","105115","104042","3624","NA","NA","105230","105929","105105","105229","3602","Flanker Task","38","24520","38","yes","1024"
"100","100","646.358974359","646.358974359","black","legacy","legacy","legacy","0","Congruent","uniform","1","undefined","1","h","0","0","0","38","38","0","38","38","0","0","0","38","38","38","38","0","Fri Sep  7 17:03:58 2018","1500","The main experiment item","yes","FlankerTask.osexp","/Users/emmaleemorgan/Desktop","no","mono","no","18","no","white","no","yes","768","legacy","38","38","/Users/emmaleemorgan/Desktop/EM subject-4, f, 36.csv","legacy","Kafkaesque Koffka","3.2.5","0","h","NA","s","NA","NA","h","688","NA","33222","NA","NA","688","2","legacy","1024","2","48000","-16","experiment","HHHHH","4","even","36855","NA","NA","NA","NA","NA","107011","105942","3624","NA","NA","107121","107810","107001","107121","3602","Flanker Task","39","25208","39","yes","1024"
"100","100","643.4","643.4","black","legacy","legacy","legacy","0","Incongruent","uniform","1","undefined","1","s","0","0","0","39","39","0","39","39","0","0","0","39","39","39","39","0","Fri Sep  7 17:03:58 2018","1500","The main experiment item","yes","FlankerTask.osexp","/Users/emmaleemorgan/Desktop","no","mono","no","18","no","white","no","yes","768","legacy","39","39","/Users/emmaleemorgan/Desktop/EM subject-4, f, 36.csv","legacy","Kafkaesque Koffka","3.2.5","0","s","NA","s","NA","NA","s","528","NA","33222","NA","NA","528","2","legacy","1024","2","48000","-16","experiment","HHSHH","4","even","36855","NA","NA","NA","NA","NA","108897","107825","3624","NA","NA","109008","109537","108886","109008","3602","Flanker Task","40","25736","40","yes","1024"
"100","100","643.097560976","643.097560976","black","legacy","legacy","legacy","0","Congruent","uniform","1","undefined","1","s","0","0","0","40","40","0","40","40","0","0","0","40","40","40","40","0","Fri Sep  7 17:03:58 2018","1500","The main experiment item","yes","FlankerTask.osexp","/Users/emmaleemorgan/Desktop","no","mono","no","18","no","white","no","yes","768","legacy","40","40","/Users/emmaleemorgan/Desktop/EM subject-4, f, 36.csv","legacy","Kafkaesque Koffka","3.2.5","0","s","NA","s","NA","NA","s","631","NA","33222","NA","NA","631","2","legacy","1024","2","48000","-16","experiment","SSSSS","4","even","36855","NA","NA","NA","NA","NA","110622","109550","3624","NA","NA","110735","111368","110612","110734","3602","Flanker Task","41","26367","41","yes","1024"
"100","100","640.952380952","640.952380952","black","legacy","legacy","legacy","0","Congruent","uniform","1","undefined","1","s","0","0","0","41","41","0","41","41","0","0","0","41","41","41","41","0","Fri Sep  7 17:03:58 2018","1500","The main experiment item","yes","FlankerTask.osexp","/Users/emmaleemorgan/Desktop","no","mono","no","18","no","white","no","yes","768","legacy","41","41","/Users/emmaleemorgan/Desktop/EM subject-4, f, 36.csv","legacy","Kafkaesque Koffka","3.2.5","0","s","NA","s","NA","NA","s","553","NA","33222","NA","NA","553","2","legacy","1024","2","48000","-16","experiment","SSSSS","4","even","36855","NA","NA","NA","NA","NA","112457","111384","3624","NA","NA","112567","113121","112447","112567","3602","Flanker Task","42","26920","42","yes","1024"
"100","100","637.837209302","637.837209302","black","legacy","legacy","legacy","0","Incongruent","uniform","1","undefined","1","s","0","0","0","42","42","0","42","42","0","0","0","42","42","42","42","0","Fri Sep  7 17:03:58 2018","1500","The main experiment item","yes","FlankerTask.osexp","/Users/emmaleemorgan/Desktop","no","mono","no","18","no","white","no","yes","768","legacy","42","42","/Users/emmaleemorgan/Desktop/EM subject-4, f, 36.csv","legacy","Kafkaesque Koffka","3.2.5","0","s","NA","s","NA","NA","s","507","NA","33222","NA","NA","507","2","legacy","1024","2","48000","-16","experiment","HHSHH","4","even","36855","NA","NA","NA","NA","NA","114204","113134","3624","NA","NA","114316","114824","114194","114316","3602","Flanker Task","43","27427","43","yes","1024"
"100","100","635.704545455","635.704545455","black","legacy","legacy","legacy","0","Congruent","uniform","1","undefined","1","h","0","0","0","43","43","0","43","43","0","0","0","43","43","43","43","0","Fri Sep  7 17:03:58 2018","1500","The main experiment item","yes","FlankerTask.osexp","/Users/emmaleemorgan/Desktop","no","mono","no","18","no","white","no","yes","768","legacy","43","43","/Users/emmaleemorgan/Desktop/EM subject-4, f, 36.csv","legacy","Kafkaesque Koffka","3.2.5","0","h","NA","s","NA","NA","h","544","NA","33222","NA","NA","544","2","legacy","1024","2","48000","-16","experiment","HHHHH","4","even","36855","NA","NA","NA","NA","NA","115915","114837","3624","NA","NA","116027","116572","115902","116026","3602","Flanker Task","44","27971","44","yes","1024"
"100","100","631.555555556","631.555555556","black","legacy","legacy","legacy","0","Congruent","uniform","1","undefined","1","s","0","0","0","44","44","0","44","44","0","0","0","44","44","44","44","0","Fri Sep  7 17:03:58 2018","1500","The main experiment item","yes","FlankerTask.osexp","/Users/emmaleemorgan/Desktop","no","mono","no","18","no","white","no","yes","768","legacy","44","44","/Users/emmaleemorgan/Desktop/EM subject-4, f, 36.csv","legacy","Kafkaesque Koffka","3.2.5","0","s","NA","s","NA","NA","s","449","NA","33222","NA","NA","449","2","legacy","1024","2","48000","-16","experiment","SSSSS","4","even","36855","NA","NA","NA","NA","NA","117658","116586","3624","NA","NA","117770","118220","117648","117770","3602","Flanker Task","45","28420","45","yes","1024"
"100","100","629.130434783","629.130434783","black","legacy","legacy","legacy","0","Incongruent","uniform","1","undefined","1","h","0","0","0","45","45","0","45","45","0","0","0","45","45","45","45","0","Fri Sep  7 17:03:58 2018","1500","The main experiment item","yes","FlankerTask.osexp","/Users/emmaleemorgan/Desktop","no","mono","no","18","no","white","no","yes","768","legacy","45","45","/Users/emmaleemorgan/Desktop/EM subject-4, f, 36.csv","legacy","Kafkaesque Koffka","3.2.5","0","h","NA","s","NA","NA","h","520","NA","33222","NA","NA","520","2","legacy","1024","2","48000","-16","experiment","SSHSS","4","even","36855","NA","NA","NA","NA","NA","119304","118232","3624","NA","NA","119416","119937","119293","119416","3602","Flanker Task","46","28940","46","yes","1024"
"100","100","629.787234043","629.787234043","black","legacy","legacy","legacy","0","Incongruent","uniform","1","undefined","1","h","0","0","0","46","46","0","46","46","0","0","0","46","46","46","46","0","Fri Sep  7 17:03:58 2018","1500","The main experiment item","yes","FlankerTask.osexp","/Users/emmaleemorgan/Desktop","no","mono","no","18","no","white","no","yes","768","legacy","46","46","/Users/emmaleemorgan/Desktop/EM subject-4, f, 36.csv","legacy","Kafkaesque Koffka","3.2.5","0","h","NA","s","NA","NA","h","660","NA","33222","NA","NA","660","2","legacy","1024","2","48000","-16","experiment","SSHSS","4","even","36855","NA","NA","NA","NA","NA","121021","119950","3624","NA","NA","121135","121796","121010","121135","3602","Flanker Task","47","29600","47","yes","1024"
"100","100","631.416666667","631.416666667","black","legacy","legacy","legacy","0","Incongruent","uniform","1","undefined","1","h","0","0","0","47","47","0","47","47","0","0","0","47","47","47","47","0","Fri Sep  7 17:03:58 2018","1500","The main experiment item","yes","FlankerTask.osexp","/Users/emmaleemorgan/Desktop","no","mono","no","18","no","white","no","yes","768","legacy","47","47","/Users/emmaleemorgan/Desktop/EM subject-4, f, 36.csv","legacy","Kafkaesque Koffka","3.2.5","0","h","NA","s","NA","NA","h","708","NA","33222","NA","NA","708","2","legacy","1024","2","48000","-16","experiment","SSHSS","4","even","36855","NA","NA","NA","NA","NA","122879","121808","3624","NA","NA","122991","123700","122869","122991","3602","Flanker Task","48","30308","48","yes","1024"
"100","100","631.469387755","631.469387755","black","legacy","legacy","legacy","0","Congruent","uniform","1","undefined","1","h","0","0","0","48","48","0","48","48","0","0","0","48","48","48","48","0","Fri Sep  7 17:03:58 2018","1500","The main experiment item","yes","FlankerTask.osexp","/Users/emmaleemorgan/Desktop","no","mono","no","18","no","white","no","yes","768","legacy","48","48","/Users/emmaleemorgan/Desktop/EM subject-4, f, 36.csv","legacy","Kafkaesque Koffka","3.2.5","0","h","NA","s","NA","NA","h","634","NA","33222","NA","NA","634","2","legacy","1024","2","48000","-16","experiment","HHHHH","4","even","36855","NA","NA","NA","NA","NA","124786","123713","3624","NA","NA","124899","125534","124774","124898","3602","Flanker Task","49","30942","49","yes","1024"
"100","100","631.24","631.24","black","legacy","legacy","legacy","0","Congruent","uniform","1","undefined","1","s","0","0","0","49","49","0","49","49","0","0","0","49","49","49","49","0","Fri Sep  7 17:03:58 2018","1500","The main experiment item","yes","FlankerTask.osexp","/Users/emmaleemorgan/Desktop","no","mono","no","18","no","white","no","yes","768","legacy","49","49","/Users/emmaleemorgan/Desktop/EM subject-4, f, 36.csv","legacy","Kafkaesque Koffka","3.2.5","0","s","NA","s","NA","NA","s","620","NA","33222","NA","NA","620","2","legacy","1024","2","48000","-16","experiment","SSSSS","4","even","36855","NA","NA","NA","NA","NA","126618","125547","3624","NA","NA","126731","127352","126608","126731","3602","Flanker Task","50","31562","50","yes","1024"
"100","100","631.607843137","631.607843137","black","legacy","legacy","legacy","0","Incongruent","uniform","1","undefined","1","s","0","0","0","50","50","0","50","50","0","0","0","50","50","50","50","0","Fri Sep  7 17:03:58 2018","1500","The main experiment item","yes","FlankerTask.osexp","/Users/emmaleemorgan/Desktop","no","mono","no","18","no","white","no","yes","768","legacy","50","50","/Users/emmaleemorgan/Desktop/EM subject-4, f, 36.csv","legacy","Kafkaesque Koffka","3.2.5","0","s","NA","s","NA","NA","s","650","NA","33222","NA","NA","650","2","legacy","1024","2","48000","-16","experiment","HHSHH","4","even","36855","NA","NA","NA","NA","NA","128432","127365","3624","NA","NA","128545","129196","128422","128545","3602","Flanker Task","51","32212","51","yes","1024"
"100","100","634.980769231","634.980769231","black","legacy","legacy","legacy","0","Incongruent","uniform","1","undefined","1","h","0","0","0","51","51","0","51","51","0","0","0","51","51","51","51","0","Fri Sep  7 17:03:58 2018","1500","The main experiment item","yes","FlankerTask.osexp","/Users/emmaleemorgan/Desktop","no","mono","no","18","no","white","no","yes","768","legacy","51","51","/Users/emmaleemorgan/Desktop/EM subject-4, f, 36.csv","legacy","Kafkaesque Koffka","3.2.5","0","h","NA","s","NA","NA","h","807","NA","33222","NA","NA","807","2","legacy","1024","2","48000","-16","experiment","SSHSS","4","even","36855","NA","NA","NA","NA","NA","130280","129209","3624","NA","NA","130392","131200","130268","130392","3602","Flanker Task","52","33019","52","yes","1024"
"100","100","633.188679245","633.188679245","black","legacy","legacy","legacy","0","Congruent","uniform","1","undefined","1","h","0","0","0","52","52","0","52","52","0","0","0","52","52","52","52","0","Fri Sep  7 17:03:58 2018","1500","The main experiment item","yes","FlankerTask.osexp","/Users/emmaleemorgan/Desktop","no","mono","no","18","no","white","no","yes","768","legacy","52","52","/Users/emmaleemorgan/Desktop/EM subject-4, f, 36.csv","legacy","Kafkaesque Koffka","3.2.5","0","h","NA","s","NA","NA","h","540","NA","33222","NA","NA","540","2","legacy","1024","2","48000","-16","experiment","HHHHH","4","even","36855","NA","NA","NA","NA","NA","132285","131213","3624","NA","NA","132397","132938","132274","132397","3602","Flanker Task","53","33559","53","yes","1024"
"100","100","633.481481481","633.481481481","black","legacy","legacy","legacy","0","Congruent","uniform","1","undefined","1","s","0","0","0","53","53","0","53","53","0","0","0","53","53","53","53","0","Fri Sep  7 17:03:58 2018","1500","The main experiment item","yes","FlankerTask.osexp","/Users/emmaleemorgan/Desktop","no","mono","no","18","no","white","no","yes","768","legacy","53","53","/Users/emmaleemorgan/Desktop/EM subject-4, f, 36.csv","legacy","Kafkaesque Koffka","3.2.5","0","s","NA","s","NA","NA","s","649","NA","33222","NA","NA","649","2","legacy","1024","2","48000","-16","experiment","SSSSS","4","even","36855","NA","NA","NA","NA","NA","134017","132952","3624","NA","NA","134132","134782","134007","134132","3602","Flanker Task","54","34208","54","yes","1024"
"100","100","631.672727273","631.672727273","black","legacy","legacy","legacy","0","Congruent","uniform","1","undefined","1","s","0","0","0","54","54","0","54","54","0","0","0","54","54","54","54","0","Fri Sep  7 17:03:58 2018","1500","The main experiment item","yes","FlankerTask.osexp","/Users/emmaleemorgan/Desktop","no","mono","no","18","no","white","no","yes","768","legacy","54","54","/Users/emmaleemorgan/Desktop/EM subject-4, f, 36.csv","legacy","Kafkaesque Koffka","3.2.5","0","s","NA","s","NA","NA","s","534","NA","33222","NA","NA","534","2","legacy","1024","2","48000","-16","experiment","SSSSS","4","even","36855","NA","NA","NA","NA","NA","135865","134795","3624","NA","NA","135978","136513","135856","135978","3602","Flanker Task","55","34742","55","yes","1024"
"100","100","630.5","630.5","black","legacy","legacy","legacy","0","Incongruent","uniform","1","undefined","1","h","0","0","0","55","55","0","55","55","0","0","0","55","55","55","55","0","Fri Sep  7 17:03:58 2018","1500","The main experiment item","yes","FlankerTask.osexp","/Users/emmaleemorgan/Desktop","no","mono","no","18","no","white","no","yes","768","legacy","55","55","/Users/emmaleemorgan/Desktop/EM subject-4, f, 36.csv","legacy","Kafkaesque Koffka","3.2.5","0","h","NA","s","NA","NA","h","566","NA","33222","NA","NA","566","2","legacy","1024","2","48000","-16","experiment","SSHSS","4","even","36855","NA","NA","NA","NA","NA","137598","136526","3624","NA","NA","137710","138277","137587","137710","3602","Flanker Task","56","35308","56","yes","1024"
"100","100","631.175438596","631.175438596","black","legacy","legacy","legacy","0","Congruent","uniform","1","undefined","1","h","0","0","0","56","56","0","56","56","0","0","0","56","56","56","56","0","Fri Sep  7 17:03:58 2018","1500","The main experiment item","yes","FlankerTask.osexp","/Users/emmaleemorgan/Desktop","no","mono","no","18","no","white","no","yes","768","legacy","56","56","/Users/emmaleemorgan/Desktop/EM subject-4, f, 36.csv","legacy","Kafkaesque Koffka","3.2.5","0","h","NA","s","NA","NA","h","669","NA","33222","NA","NA","669","2","legacy","1024","2","48000","-16","experiment","HHHHH","4","even","36855","NA","NA","NA","NA","NA","139362","138290","3624","NA","NA","139474","140144","139352","139474","3602","Flanker Task","57","35977","57","yes","1024"
"100","100","629.672413793","629.672413793","black","legacy","legacy","legacy","0","Congruent","uniform","1","undefined","1","s","0","0","0","57","57","0","57","57","0","0","0","57","57","57","57","0","Fri Sep  7 17:03:58 2018","1500","The main experiment item","yes","FlankerTask.osexp","/Users/emmaleemorgan/Desktop","no","mono","no","18","no","white","no","yes","768","legacy","57","57","/Users/emmaleemorgan/Desktop/EM subject-4, f, 36.csv","legacy","Kafkaesque Koffka","3.2.5","0","s","NA","s","NA","NA","s","544","NA","33222","NA","NA","544","2","legacy","1024","2","48000","-16","experiment","SSSSS","4","even","36855","NA","NA","NA","NA","NA","141229","140157","3624","NA","NA","141344","141889","141218","141344","3602","Flanker Task","58","36521","58","yes","1024"
"100","100","627.915254237","627.915254237","black","legacy","legacy","legacy","0","Incongruent","uniform","1","undefined","1","h","0","0","0","58","58","0","58","58","0","0","0","58","58","58","58","0","Fri Sep  7 17:03:58 2018","1500","The main experiment item","yes","FlankerTask.osexp","/Users/emmaleemorgan/Desktop","no","mono","no","18","no","white","no","yes","768","legacy","58","58","/Users/emmaleemorgan/Desktop/EM subject-4, f, 36.csv","legacy","Kafkaesque Koffka","3.2.5","0","h","NA","s","NA","NA","h","526","NA","33222","NA","NA","526","2","legacy","1024","2","48000","-16","experiment","SSHSS","4","even","36855","NA","NA","NA","NA","NA","142973","141902","3624","NA","NA","143085","143612","142963","143085","3602","Flanker Task","59","37047","59","yes","1024"
"100","100","627.666666667","627.666666667","black","legacy","legacy","legacy","0","Incongruent","uniform","1","undefined","1","h","0","0","0","59","59","0","59","59","0","0","0","59","59","59","59","0","Fri Sep  7 17:03:58 2018","1500","The main experiment item","yes","FlankerTask.osexp","/Users/emmaleemorgan/Desktop","no","mono","no","18","no","white","no","yes","768","legacy","59","59","/Users/emmaleemorgan/Desktop/EM subject-4, f, 36.csv","legacy","Kafkaesque Koffka","3.2.5","0","h","NA","s","NA","NA","h","613","NA","33222","NA","NA","613","2","legacy","1024","2","48000","-16","experiment","SSHSS","4","even","36855","NA","NA","NA","NA","NA","144697","143625","3624","NA","NA","144810","145424","144687","144810","3602","Flanker Task","60","37660","60","yes","1024"
"100","100","625.819672131","625.819672131","black","legacy","legacy","legacy","0","Congruent","uniform","1","undefined","1","h","0","0","0","60","60","0","60","60","0","0","0","60","60","60","60","0","Fri Sep  7 17:03:58 2018","1500","The main experiment item","yes","FlankerTask.osexp","/Users/emmaleemorgan/Desktop","no","mono","no","18","no","white","no","yes","768","legacy","60","60","/Users/emmaleemorgan/Desktop/EM subject-4, f, 36.csv","legacy","Kafkaesque Koffka","3.2.5","0","h","NA","s","NA","NA","h","515","NA","33222","NA","NA","515","2","legacy","1024","2","48000","-16","experiment","HHHHH","4","even","36855","NA","NA","NA","NA","NA","146509","145438","3624","NA","NA","146622","147139","146499","146622","3602","Flanker Task","61","38175","61","yes","1024"
"100","100","625.64516129","625.64516129","black","legacy","legacy","legacy","0","Congruent","uniform","1","undefined","1","s","0","0","0","61","61","0","61","61","0","0","0","61","61","61","61","0","Fri Sep  7 17:03:58 2018","1500","The main experiment item","yes","FlankerTask.osexp","/Users/emmaleemorgan/Desktop","no","mono","no","18","no","white","no","yes","768","legacy","61","61","/Users/emmaleemorgan/Desktop/EM subject-4, f, 36.csv","legacy","Kafkaesque Koffka","3.2.5","0","s","NA","s","NA","NA","s","615","NA","33222","NA","NA","615","2","legacy","1024","2","48000","-16","experiment","SSSSS","4","even","36855","NA","NA","NA","NA","NA","148221","147152","3624","NA","NA","148331","148948","148211","148331","3602","Flanker Task","62","38790","62","yes","1024"
"100","100","626.158730159","626.158730159","black","legacy","legacy","legacy","0","Congruent","uniform","1","undefined","1","s","0","0","0","62","62","0","62","62","0","0","0","62","62","62","62","0","Fri Sep  7 17:03:58 2018","1500","The main experiment item","yes","FlankerTask.osexp","/Users/emmaleemorgan/Desktop","no","mono","no","18","no","white","no","yes","768","legacy","62","62","/Users/emmaleemorgan/Desktop/EM subject-4, f, 36.csv","legacy","Kafkaesque Koffka","3.2.5","0","s","NA","s","NA","NA","s","658","NA","33222","NA","NA","658","2","legacy","1024","2","48000","-16","experiment","SSSSS","4","even","36855","NA","NA","NA","NA","NA","150032","148962","3624","NA","NA","150145","150805","150022","150145","3602","Flanker Task","63","39448","63","yes","1024"
"100","100","623.09375","623.09375","black","legacy","legacy","legacy","0","Congruent","uniform","1","undefined","1","h","0","0","0","63","63","0","63","63","0","0","0","63","63","63","63","0","Fri Sep  7 17:03:58 2018","1500","The main experiment item","yes","FlankerTask.osexp","/Users/emmaleemorgan/Desktop","no","mono","no","18","no","white","no","yes","768","legacy","63","63","/Users/emmaleemorgan/Desktop/EM subject-4, f, 36.csv","legacy","Kafkaesque Koffka","3.2.5","0","h","NA","s","NA","NA","h","430","NA","33222","NA","NA","430","2","legacy","1024","2","48000","-16","experiment","HHHHH","4","even","36855","NA","NA","NA","NA","NA","151889","150818","3624","NA","NA","151999","152431","151879","151999","3602","Flanker Task","64","39878","64","yes","1024"
"100","100","622.723076923","622.723076923","black","legacy","legacy","legacy","0","Incongruent","uniform","1","undefined","1","h","0","0","0","64","64","0","64","64","0","0","0","64","64","64","64","0","Fri Sep  7 17:03:58 2018","1500","The main experiment item","yes","FlankerTask.osexp","/Users/emmaleemorgan/Desktop","no","mono","no","18","no","white","no","yes","768","legacy","64","64","/Users/emmaleemorgan/Desktop/EM subject-4, f, 36.csv","legacy","Kafkaesque Koffka","3.2.5","0","h","NA","s","NA","NA","h","599","NA","33222","NA","NA","599","2","legacy","1024","2","48000","-16","experiment","SSHSS","4","even","36855","NA","NA","NA","NA","NA","153515","152444","3624","NA","NA","153627","154228","153505","153627","3602","Flanker Task","65","40477","65","yes","1024"
"100","100","625.848484848","625.848484848","black","legacy","legacy","legacy","0","Incongruent","uniform","1","undefined","1","s","0","0","0","65","65","0","65","65","0","0","0","65","65","65","65","0","Fri Sep  7 17:03:58 2018","1500","The main experiment item","yes","FlankerTask.osexp","/Users/emmaleemorgan/Desktop","no","mono","no","18","no","white","no","yes","768","legacy","65","65","/Users/emmaleemorgan/Desktop/EM subject-4, f, 36.csv","legacy","Kafkaesque Koffka","3.2.5","0","s","NA","s","NA","NA","s","829","NA","33222","NA","NA","829","2","legacy","1024","2","48000","-16","experiment","HHSHH","4","even","36855","NA","NA","NA","NA","NA","155310","154241","3624","NA","NA","155421","156252","155299","155421","3602","Flanker Task","66","41306","66","yes","1024"
"100","100","624.313432836","624.313432836","black","legacy","legacy","legacy","0","Incongruent","uniform","1","undefined","1","s","0","0","0","66","66","0","66","66","0","0","0","66","66","66","66","0","Fri Sep  7 17:03:58 2018","1500","The main experiment item","yes","FlankerTask.osexp","/Users/emmaleemorgan/Desktop","no","mono","no","18","no","white","no","yes","768","legacy","66","66","/Users/emmaleemorgan/Desktop/EM subject-4, f, 36.csv","legacy","Kafkaesque Koffka","3.2.5","0","s","NA","s","NA","NA","s","523","NA","33222","NA","NA","523","2","legacy","1024","2","48000","-16","experiment","HHSHH","4","even","36855","NA","NA","NA","NA","NA","157334","156266","3624","NA","NA","157446","157970","157324","157446","3602","Flanker Task","67","41829","67","yes","1024"
"100","100","623.294117647","623.294117647","black","legacy","legacy","legacy","0","Congruent","uniform","1","undefined","1","h","0","0","0","67","67","0","67","67","0","0","0","67","67","67","67","0","Fri Sep  7 17:03:58 2018","1500","The main experiment item","yes","FlankerTask.osexp","/Users/emmaleemorgan/Desktop","no","mono","no","18","no","white","no","yes","768","legacy","67","67","/Users/emmaleemorgan/Desktop/EM subject-4, f, 36.csv","legacy","Kafkaesque Koffka","3.2.5","0","h","NA","s","NA","NA","h","555","NA","33222","NA","NA","555","2","legacy","1024","2","48000","-16","experiment","HHHHH","4","even","36855","NA","NA","NA","NA","NA","159059","157983","3624","NA","NA","159172","159729","159049","159172","3602","Flanker Task","68","42384","68","yes","1024"
"100","100","624.608695652","624.608695652","black","legacy","legacy","legacy","0","Congruent","uniform","1","undefined","1","s","0","0","0","68","68","0","68","68","0","0","0","68","68","68","68","0","Fri Sep  7 17:03:58 2018","1500","The main experiment item","yes","FlankerTask.osexp","/Users/emmaleemorgan/Desktop","no","mono","no","18","no","white","no","yes","768","legacy","68","68","/Users/emmaleemorgan/Desktop/EM subject-4, f, 36.csv","legacy","Kafkaesque Koffka","3.2.5","0","s","NA","s","NA","NA","s","714","NA","33222","NA","NA","714","2","legacy","1024","2","48000","-16","experiment","SSSSS","4","even","36855","NA","NA","NA","NA","NA","160815","159742","3624","NA","NA","160928","161644","160804","160928","3602","Flanker Task","69","43098","69","yes","1024"
"100","100","624.442857143","624.442857143","black","legacy","legacy","legacy","0","Incongruent","uniform","1","undefined","1","s","0","0","0","69","69","0","69","69","0","0","0","69","69","69","69","0","Fri Sep  7 17:03:58 2018","1500","The main experiment item","yes","FlankerTask.osexp","/Users/emmaleemorgan/Desktop","no","mono","no","18","no","white","no","yes","768","legacy","69","69","/Users/emmaleemorgan/Desktop/EM subject-4, f, 36.csv","legacy","Kafkaesque Koffka","3.2.5","0","s","NA","s","NA","NA","s","613","NA","33222","NA","NA","613","2","legacy","1024","2","48000","-16","experiment","HHSHH","4","even","36855","NA","NA","NA","NA","NA","162730","161657","3624","NA","NA","162842","163456","162719","162842","3602","Flanker Task","70","43711","70","yes","1024"
"100","100","623.169014085","623.169014085","black","legacy","legacy","legacy","0","Congruent","uniform","1","undefined","1","s","0","0","0","70","70","0","70","70","0","0","0","70","70","70","70","0","Fri Sep  7 17:03:58 2018","1500","The main experiment item","yes","FlankerTask.osexp","/Users/emmaleemorgan/Desktop","no","mono","no","18","no","white","no","yes","768","legacy","70","70","/Users/emmaleemorgan/Desktop/EM subject-4, f, 36.csv","legacy","Kafkaesque Koffka","3.2.5","0","s","NA","s","NA","NA","s","534","NA","33222","NA","NA","534","2","legacy","1024","2","48000","-16","experiment","SSSSS","4","even","36855","NA","NA","NA","NA","NA","164543","163471","3624","NA","NA","164655","165191","164532","164655","3602","Flanker Task","71","44245","71","yes","1024"
"100","100","620.861111111","620.861111111","black","legacy","legacy","legacy","0","Congruent","uniform","1","undefined","1","s","0","0","0","71","71","0","71","71","0","0","0","71","71","71","71","0","Fri Sep  7 17:03:58 2018","1500","The main experiment item","yes","FlankerTask.osexp","/Users/emmaleemorgan/Desktop","no","mono","no","18","no","white","no","yes","768","legacy","71","71","/Users/emmaleemorgan/Desktop/EM subject-4, f, 36.csv","legacy","Kafkaesque Koffka","3.2.5","0","s","NA","s","NA","NA","s","457","NA","33222","NA","NA","457","2","legacy","1024","2","48000","-16","experiment","SSSSS","4","even","36855","NA","NA","NA","NA","NA","166272","165204","3624","NA","NA","166382","166841","166261","166382","3602","Flanker Task","72","44702","72","yes","1024"
"100","100","618.890410959","618.890410959","black","legacy","legacy","legacy","0","Congruent","uniform","1","undefined","1","h","0","0","0","72","72","0","72","72","0","0","0","72","72","72","72","0","Fri Sep  7 17:03:58 2018","1500","The main experiment item","yes","FlankerTask.osexp","/Users/emmaleemorgan/Desktop","no","mono","no","18","no","white","no","yes","768","legacy","72","72","/Users/emmaleemorgan/Desktop/EM subject-4, f, 36.csv","legacy","Kafkaesque Koffka","3.2.5","0","h","NA","s","NA","NA","h","477","NA","33222","NA","NA","477","2","legacy","1024","2","48000","-16","experiment","HHHHH","4","even","36855","NA","NA","NA","NA","NA","167928","166855","3624","NA","NA","168040","168519","167917","168040","3602","Flanker Task","73","45179","73","yes","1024"
"100","100","618.378378378","618.378378378","black","legacy","legacy","legacy","0","Congruent","uniform","1","undefined","1","s","0","0","0","73","73","0","73","73","0","0","0","73","73","73","73","0","Fri Sep  7 17:03:58 2018","1500","The main experiment item","yes","FlankerTask.osexp","/Users/emmaleemorgan/Desktop","no","mono","no","18","no","white","no","yes","768","legacy","73","73","/Users/emmaleemorgan/Desktop/EM subject-4, f, 36.csv","legacy","Kafkaesque Koffka","3.2.5","0","s","NA","s","NA","NA","s","581","NA","33222","NA","NA","581","2","legacy","1024","2","48000","-16","experiment","SSSSS","4","even","36855","NA","NA","NA","NA","NA","169603","168532","3624","NA","NA","169715","170298","169593","169715","3602","Flanker Task","74","45760","74","yes","1024"
"100","100","617.84","617.84","black","legacy","legacy","legacy","0","Incongruent","uniform","1","undefined","1","s","0","0","0","74","74","0","74","74","0","0","0","74","74","74","74","0","Fri Sep  7 17:03:58 2018","1500","The main experiment item","yes","FlankerTask.osexp","/Users/emmaleemorgan/Desktop","no","mono","no","18","no","white","no","yes","768","legacy","74","74","/Users/emmaleemorgan/Desktop/EM subject-4, f, 36.csv","legacy","Kafkaesque Koffka","3.2.5","0","s","NA","s","NA","NA","s","578","NA","33222","NA","NA","578","2","legacy","1024","2","48000","-16","experiment","HHSHH","4","even","36855","NA","NA","NA","NA","NA","171380","170310","3624","NA","NA","171492","172072","171370","171492","3602","Flanker Task","75","46338","75","yes","1024"
"100","100","616.644736842","616.644736842","black","legacy","legacy","legacy","0","Congruent","uniform","1","undefined","1","h","0","0","0","75","75","0","75","75","0","0","0","75","75","75","75","0","Fri Sep  7 17:03:58 2018","1500","The main experiment item","yes","FlankerTask.osexp","/Users/emmaleemorgan/Desktop","no","mono","no","18","no","white","no","yes","768","legacy","75","75","/Users/emmaleemorgan/Desktop/EM subject-4, f, 36.csv","legacy","Kafkaesque Koffka","3.2.5","0","h","NA","s","NA","NA","h","527","NA","33222","NA","NA","527","2","legacy","1024","2","48000","-16","experiment","HHHHH","4","even","36855","NA","NA","NA","NA","NA","173161","172086","3624","NA","NA","173274","173803","173151","173274","3602","Flanker Task","76","46865","76","yes","1024"
"100","100","616.311688312","616.311688312","black","legacy","legacy","legacy","0","Incongruent","uniform","1","undefined","1","s","0","0","0","76","76","0","76","76","0","0","0","76","76","76","76","0","Fri Sep  7 17:03:58 2018","1500","The main experiment item","yes","FlankerTask.osexp","/Users/emmaleemorgan/Desktop","no","mono","no","18","no","white","no","yes","768","legacy","76","76","/Users/emmaleemorgan/Desktop/EM subject-4, f, 36.csv","legacy","Kafkaesque Koffka","3.2.5","0","s","NA","s","NA","NA","s","591","NA","33222","NA","NA","591","2","legacy","1024","2","48000","-16","experiment","HHSHH","4","even","36855","NA","NA","NA","NA","NA","174888","173815","3624","NA","NA","175000","175593","174878","175000","3602","Flanker Task","77","47456","77","yes","1024"
"100","100","615.820512821","615.820512821","black","legacy","legacy","legacy","0","Incongruent","uniform","1","undefined","1","s","0","0","0","77","77","0","77","77","0","0","0","77","77","77","77","0","Fri Sep  7 17:03:58 2018","1500","The main experiment item","yes","FlankerTask.osexp","/Users/emmaleemorgan/Desktop","no","mono","no","18","no","white","no","yes","768","legacy","77","77","/Users/emmaleemorgan/Desktop/EM subject-4, f, 36.csv","legacy","Kafkaesque Koffka","3.2.5","0","s","NA","s","NA","NA","s","578","NA","33222","NA","NA","578","2","legacy","1024","2","48000","-16","experiment","HHSHH","4","even","36855","NA","NA","NA","NA","NA","176678","175606","3624","NA","NA","176790","177370","176668","176790","3602","Flanker Task","78","48034","78","yes","1024"
"100","100","613.569620253","613.569620253","black","legacy","legacy","legacy","0","Congruent","uniform","1","undefined","1","h","0","0","0","78","78","0","78","78","0","0","0","78","78","78","78","0","Fri Sep  7 17:03:58 2018","1500","The main experiment item","yes","FlankerTask.osexp","/Users/emmaleemorgan/Desktop","no","mono","no","18","no","white","no","yes","768","legacy","78","78","/Users/emmaleemorgan/Desktop/EM subject-4, f, 36.csv","legacy","Kafkaesque Koffka","3.2.5","0","h","NA","s","NA","NA","h","438","NA","33222","NA","NA","438","2","legacy","1024","2","48000","-16","experiment","HHHHH","4","even","36855","NA","NA","NA","NA","NA","178455","177383","3624","NA","NA","178567","179007","178444","178567","3602","Flanker Task","79","48472","79","yes","1024"
"100","100","613.6875","613.6875","black","legacy","legacy","legacy","0","Incongruent","uniform","1","undefined","1","h","0","0","0","79","79","0","79","79","0","0","0","79","79","79","79","0","Fri Sep  7 17:03:58 2018","1500","The main experiment item","yes","FlankerTask.osexp","/Users/emmaleemorgan/Desktop","no","mono","no","18","no","white","no","yes","768","legacy","79","79","/Users/emmaleemorgan/Desktop/EM subject-4, f, 36.csv","legacy","Kafkaesque Koffka","3.2.5","0","h","NA","s","NA","NA","h","623","NA","33222","NA","NA","623","2","legacy","1024","2","48000","-16","experiment","SSHSS","4","even","36855","NA","NA","NA","NA","NA","180087","179020","3624","NA","NA","180199","180824","180077","180198","3602","Flanker Task","80","49095","80","yes","1024"
"100","100","615.395061728","615.395061728","black","legacy","legacy","legacy","0","Congruent","uniform","1","undefined","1","h","0","0","0","80","80","0","80","80","0","0","0","80","80","80","80","0","Fri Sep  7 17:03:58 2018","600","The main experiment item","yes","FlankerTask.osexp","/Users/emmaleemorgan/Desktop","no","mono","no","18","no","white","no","yes","768","legacy","0","79","/Users/emmaleemorgan/Desktop/EM subject-4, f, 36.csv","legacy","Kafkaesque Koffka","3.2.5","0","h","NA","s","h","NA","h","752","NA","33222","12920","NA","752","2","legacy","1024","2","48000","-16","experiment","HHHHH","4","even","36855","194783","NA","NA","NA","NA","194844","180837","3624","181861","NA","194958","195711","194834","194958","3602","Flanker Task","81","49847","81","yes","1024"
"100","100","613.987804878","613.987804878","black","legacy","legacy","legacy","0","Incongruent","uniform","1","undefined","1","s","0","0","0","81","81","0","81","81","0","0","0","81","81","81","81","0","Fri Sep  7 17:03:58 2018","600","The main experiment item","yes","FlankerTask.osexp","/Users/emmaleemorgan/Desktop","no","mono","no","18","no","white","no","yes","768","legacy","1","79","/Users/emmaleemorgan/Desktop/EM subject-4, f, 36.csv","legacy","Kafkaesque Koffka","3.2.5","0","s","NA","s","h","NA","s","500","NA","33222","12920","NA","500","2","legacy","1024","2","48000","-16","experiment","HHSHH","4","even","36855","194783","NA","NA","195726","NA","197309","196237","3624","181861","NA","197421","197922","197299","197421","3602","Flanker Task","82","50347","82","yes","1024"
"100","100","611.662650602","611.662650602","black","legacy","legacy","legacy","0","Incongruent","uniform","1","undefined","1","h","0","0","0","82","82","0","82","82","0","0","0","82","82","82","82","0","Fri Sep  7 17:03:58 2018","600","The main experiment item","yes","FlankerTask.osexp","/Users/emmaleemorgan/Desktop","no","mono","no","18","no","white","no","yes","768","legacy","2","79","/Users/emmaleemorgan/Desktop/EM subject-4, f, 36.csv","legacy","Kafkaesque Koffka","3.2.5","0","h","NA","s","h","NA","h","421","NA","33222","12920","NA","421","2","legacy","1024","2","48000","-16","experiment","SSHSS","4","even","36855","194783","NA","NA","195726","NA","199006","197935","3624","181861","NA","199118","199541","198997","199118","3602","Flanker Task","83","50768","83","yes","1024"
"100","100","609.452380952","609.452380952","black","legacy","legacy","legacy","0","Incongruent","uniform","1","undefined","1","s","0","0","0","83","83","0","83","83","0","0","0","83","83","83","83","0","Fri Sep  7 17:03:58 2018","600","The main experiment item","yes","FlankerTask.osexp","/Users/emmaleemorgan/Desktop","no","mono","no","18","no","white","no","yes","768","legacy","3","79","/Users/emmaleemorgan/Desktop/EM subject-4, f, 36.csv","legacy","Kafkaesque Koffka","3.2.5","0","s","NA","s","h","NA","s","426","NA","33222","12920","NA","426","2","legacy","1024","2","48000","-16","experiment","HHSHH","4","even","36855","194783","NA","NA","195726","NA","200622","199554","3624","181861","NA","200733","201161","200612","200733","3602","Flanker Task","84","51194","84","yes","1024"
"100","100","606.929411765","606.929411765","black","legacy","legacy","legacy","0","Congruent","uniform","1","undefined","1","h","0","0","0","84","84","0","84","84","0","0","0","84","84","84","84","0","Fri Sep  7 17:03:58 2018","600","The main experiment item","yes","FlankerTask.osexp","/Users/emmaleemorgan/Desktop","no","mono","no","18","no","white","no","yes","768","legacy","4","79","/Users/emmaleemorgan/Desktop/EM subject-4, f, 36.csv","legacy","Kafkaesque Koffka","3.2.5","0","h","NA","s","h","NA","h","395","NA","33222","12920","NA","395","2","legacy","1024","2","48000","-16","experiment","HHHHH","4","even","36855","194783","NA","NA","195726","NA","202242","201174","3624","181861","NA","202354","202750","202232","202354","3602","Flanker Task","85","51589","85","yes","1024"
"100","100","607.38372093","607.38372093","black","legacy","legacy","legacy","0","Incongruent","uniform","1","undefined","1","h","0","0","0","85","85","0","85","85","0","0","0","85","85","85","85","0","Fri Sep  7 17:03:58 2018","600","The main experiment item","yes","FlankerTask.osexp","/Users/emmaleemorgan/Desktop","no","mono","no","18","no","white","no","yes","768","legacy","5","79","/Users/emmaleemorgan/Desktop/EM subject-4, f, 36.csv","legacy","Kafkaesque Koffka","3.2.5","0","h","NA","s","h","NA","h","646","NA","33222","12920","NA","646","2","legacy","1024","2","48000","-16","experiment","SSHSS","4","even","36855","194783","NA","NA","195726","NA","203833","202763","3624","181861","NA","203944","204592","203823","203944","3602","Flanker Task","86","52235","86","yes","1024"
"100","100","605.482758621","605.482758621","black","legacy","legacy","legacy","0","Congruent","uniform","1","undefined","1","h","0","0","0","86","86","0","86","86","0","0","0","86","86","86","86","0","Fri Sep  7 17:03:58 2018","600","The main experiment item","yes","FlankerTask.osexp","/Users/emmaleemorgan/Desktop","no","mono","no","18","no","white","no","yes","768","legacy","6","79","/Users/emmaleemorgan/Desktop/EM subject-4, f, 36.csv","legacy","Kafkaesque Koffka","3.2.5","0","h","NA","s","h","NA","h","442","NA","33222","12920","NA","442","2","legacy","1024","2","48000","-16","experiment","HHHHH","4","even","36855","194783","NA","NA","204606","NA","206187","205117","3624","181861","NA","206298","206741","206177","206298","3602","Flanker Task","87","52677","87","yes","1024"
"100","100","604.727272727","604.727272727","black","legacy","legacy","legacy","0","Incongruent","uniform","1","undefined","1","s","0","0","0","87","87","0","87","87","0","0","0","87","87","87","87","0","Fri Sep  7 17:03:58 2018","600","The main experiment item","yes","FlankerTask.osexp","/Users/emmaleemorgan/Desktop","no","mono","no","18","no","white","no","yes","768","legacy","7","79","/Users/emmaleemorgan/Desktop/EM subject-4, f, 36.csv","legacy","Kafkaesque Koffka","3.2.5","0","s","NA","s","h","NA","s","539","NA","33222","12920","NA","539","2","legacy","1024","2","48000","-16","experiment","HHSHH","4","even","36855","194783","NA","NA","204606","NA","207823","206754","3624","181861","NA","207933","208474","207813","207933","3602","Flanker Task","88","53216","88","yes","1024"
"98.8764044944","98.8764044944","601.629213483","601.629213483","black","legacy","legacy","legacy","0","Incongruent","uniform","0","undefined","0","s","0","0","0","88","88","0","88","88","0","0","0","88","88","88","88","0","Fri Sep  7 17:03:58 2018","600","The main experiment item","yes","FlankerTask.osexp","/Users/emmaleemorgan/Desktop","no","mono","no","18","no","white","no","yes","768","legacy","8","79","/Users/emmaleemorgan/Desktop/EM subject-4, f, 36.csv","legacy","Kafkaesque Koffka","3.2.5","0","h","NA","s","h","NA","h","329","NA","33222","12920","NA","329","2","legacy","1024","2","48000","-16","experiment","HHSHH","4","even","36855","194783","NA","NA","204606","NA","209560","208487","3624","181861","NA","209674","210005","209549","209673","3602","Flanker Task","88","53545","89","yes","1024"
"98.8888888889","98.8888888889","601.1","601.1","black","legacy","legacy","legacy","0","Incongruent","uniform","1","undefined","1","h","0","0","0","89","89","0","89","89","0","0","0","89","89","89","89","0","Fri Sep  7 17:03:58 2018","600","The main experiment item","yes","FlankerTask.osexp","/Users/emmaleemorgan/Desktop","no","mono","no","18","no","white","no","yes","768","legacy","9","79","/Users/emmaleemorgan/Desktop/EM subject-4, f, 36.csv","legacy","Kafkaesque Koffka","3.2.5","0","h","NA","s","h","NA","h","554","NA","33222","12920","NA","554","2","legacy","1024","2","48000","-16","experiment","SSHSS","4","even","36855","194783","NA","210018","204606","NA","211600","210529","3624","181861","NA","211712","212269","211590","211712","3602","Flanker Task","89","54099","90","yes","1024"
"98.9010989011","98.9010989011","600.406593407","600.406593407","black","legacy","legacy","legacy","0","Incongruent","uniform","1","undefined","1","h","0","0","0","90","90","0","90","90","0","0","0","90","90","90","90","0","Fri Sep  7 17:03:58 2018","600","The main experiment item","yes","FlankerTask.osexp","/Users/emmaleemorgan/Desktop","no","mono","no","18","no","white","no","yes","768","legacy","10","79","/Users/emmaleemorgan/Desktop/EM subject-4, f, 36.csv","legacy","Kafkaesque Koffka","3.2.5","0","h","NA","s","h","NA","h","538","NA","33222","12920","NA","538","2","legacy","1024","2","48000","-16","experiment","SSHSS","4","even","36855","194783","NA","210018","204606","NA","213356","212284","3624","181861","NA","213468","214008","213346","213468","3602","Flanker Task","90","54637","91","yes","1024"
"97.8260869565","97.8260869565","597.945652174","597.945652174","black","legacy","legacy","legacy","0","Congruent","uniform","0","undefined","0","s","0","0","0","91","91","0","91","91","0","0","0","91","91","91","91","0","Fri Sep  7 17:03:58 2018","600","The main experiment item","yes","FlankerTask.osexp","/Users/emmaleemorgan/Desktop","no","mono","no","18","no","white","no","yes","768","legacy","11","79","/Users/emmaleemorgan/Desktop/EM subject-4, f, 36.csv","legacy","Kafkaesque Koffka","3.2.5","0","h","NA","s","h","NA","h","374","NA","33222","12920","NA","374","2","legacy","1024","2","48000","-16","experiment","SSSSS","4","even","36855","194783","NA","210018","204606","NA","215087","214021","3624","181861","NA","215198","215574","215077","215198","3602","Flanker Task","90","55011","92","yes","1024"
"96.7741935484","96.7741935484","597.612903226","597.612903226","black","legacy","legacy","legacy","0","Congruent","uniform","0","undefined","0","h","0","0","0","92","92","0","92","92","0","0","0","92","92","92","92","0","Fri Sep  7 17:03:58 2018","600","The main experiment item","yes","FlankerTask.osexp","/Users/emmaleemorgan/Desktop","no","mono","no","18","no","white","no","yes","768","legacy","12","79","/Users/emmaleemorgan/Desktop/EM subject-4, f, 36.csv","legacy","Kafkaesque Koffka","3.2.5","0","s","NA","s","h","NA","s","567","NA","33222","12920","NA","567","2","legacy","1024","2","48000","-16","experiment","HHHHH","4","even","36855","194783","NA","215587","204606","NA","217170","216097","3624","181861","NA","217284","217852","217160","217284","3602","Flanker Task","90","55578","93","yes","1024"
"96.8085106383","96.8085106383","596.127659574","596.127659574","black","legacy","legacy","legacy","0","Congruent","uniform","1","undefined","1","h","0","0","0","93","93","0","93","93","0","0","0","93","93","93","93","0","Fri Sep  7 17:03:58 2018","600","The main experiment item","yes","FlankerTask.osexp","/Users/emmaleemorgan/Desktop","no","mono","no","18","no","white","no","yes","768","legacy","13","79","/Users/emmaleemorgan/Desktop/EM subject-4, f, 36.csv","legacy","Kafkaesque Koffka","3.2.5","0","h","NA","s","h","NA","h","458","NA","33222","12920","NA","458","2","legacy","1024","2","48000","-16","experiment","HHHHH","4","even","36855","194783","NA","217865","204606","NA","219448","218376","3624","181861","NA","219559","220019","219438","219559","3602","Flanker Task","91","56036","94","yes","1024"
"96.8421052632","96.8421052632","594.452631579","594.452631579","black","legacy","legacy","legacy","0","Incongruent","uniform","1","undefined","1","h","0","0","0","94","94","0","94","94","0","0","0","94","94","94","94","0","Fri Sep  7 17:03:58 2018","600","The main experiment item","yes","FlankerTask.osexp","/Users/emmaleemorgan/Desktop","no","mono","no","18","no","white","no","yes","768","legacy","14","79","/Users/emmaleemorgan/Desktop/EM subject-4, f, 36.csv","legacy","Kafkaesque Koffka","3.2.5","0","h","NA","s","h","NA","h","437","NA","33222","12920","NA","437","2","legacy","1024","2","48000","-16","experiment","SSHSS","4","even","36855","194783","NA","217865","204606","NA","221101","220030","3624","181861","NA","221214","221653","221091","221214","3602","Flanker Task","92","56473","95","yes","1024"
"96.875","96.875","593.875","593.875","black","legacy","legacy","legacy","0","Congruent","uniform","1","undefined","1","s","0","0","0","95","95","0","95","95","0","0","0","95","95","95","95","0","Fri Sep  7 17:03:58 2018","600","The main experiment item","yes","FlankerTask.osexp","/Users/emmaleemorgan/Desktop","no","mono","no","18","no","white","no","yes","768","legacy","15","79","/Users/emmaleemorgan/Desktop/EM subject-4, f, 36.csv","legacy","Kafkaesque Koffka","3.2.5","0","s","NA","s","h","NA","s","539","NA","33222","12920","NA","539","2","legacy","1024","2","48000","-16","experiment","SSSSS","4","even","36855","194783","NA","217865","204606","NA","222738","221666","3624","181861","NA","222851","223392","222728","222850","3602","Flanker Task","93","57012","96","yes","1024"
"96.9072164948","96.9072164948","592.597938144","592.597938144","black","legacy","legacy","legacy","0","Congruent","uniform","1","undefined","1","s","0","0","0","96","96","0","96","96","0","0","0","96","96","96","96","0","Fri Sep  7 17:03:58 2018","600","The main experiment item","yes","FlankerTask.osexp","/Users/emmaleemorgan/Desktop","no","mono","no","18","no","white","no","yes","768","legacy","16","79","/Users/emmaleemorgan/Desktop/EM subject-4, f, 36.csv","legacy","Kafkaesque Koffka","3.2.5","0","s","NA","s","h","NA","s","470","NA","33222","12920","NA","470","2","legacy","1024","2","48000","-16","experiment","SSSSS","4","even","36855","194783","NA","217865","204606","NA","224474","223408","3624","181861","NA","224588","225060","224464","224587","3602","Flanker Task","94","57482","97","yes","1024"
"96.9387755102","96.9387755102","591.336734694","591.336734694","black","legacy","legacy","legacy","0","Incongruent","uniform","1","undefined","1","h","0","0","0","97","97","0","97","97","0","0","0","97","97","97","97","0","Fri Sep  7 17:03:58 2018","600","The main experiment item","yes","FlankerTask.osexp","/Users/emmaleemorgan/Desktop","no","mono","no","18","no","white","no","yes","768","legacy","17","79","/Users/emmaleemorgan/Desktop/EM subject-4, f, 36.csv","legacy","Kafkaesque Koffka","3.2.5","0","h","NA","s","h","NA","h","469","NA","33222","12920","NA","469","2","legacy","1024","2","48000","-16","experiment","SSHSS","4","even","36855","194783","NA","217865","204606","NA","226145","225073","3624","181861","NA","226258","226729","226135","226258","3602","Flanker Task","95","57951","98","yes","1024"
"96.9696969697","96.9696969697","590.444444444","590.444444444","black","legacy","legacy","legacy","0","Incongruent","uniform","1","undefined","1","h","0","0","0","98","98","0","98","98","0","0","0","98","98","98","98","0","Fri Sep  7 17:03:58 2018","600","The main experiment item","yes","FlankerTask.osexp","/Users/emmaleemorgan/Desktop","no","mono","no","18","no","white","no","yes","768","legacy","18","79","/Users/emmaleemorgan/Desktop/EM subject-4, f, 36.csv","legacy","Kafkaesque Koffka","3.2.5","0","h","NA","s","h","NA","h","503","NA","33222","12920","NA","503","2","legacy","1024","2","48000","-16","experiment","SSHSS","4","even","36855","194783","NA","217865","204606","NA","227812","226742","3624","181861","NA","227924","228429","227802","227924","3602","Flanker Task","96","58454","99","yes","1024"
"97","97","590.3","590.3","black","legacy","legacy","legacy","0","Congruent","uniform","1","undefined","1","s","0","0","0","99","99","0","99","99","0","0","0","99","99","99","99","0","Fri Sep  7 17:03:58 2018","600","The main experiment item","yes","FlankerTask.osexp","/Users/emmaleemorgan/Desktop","no","mono","no","18","no","white","no","yes","768","legacy","19","79","/Users/emmaleemorgan/Desktop/EM subject-4, f, 36.csv","legacy","Kafkaesque Koffka","3.2.5","0","s","NA","s","h","NA","s","576","NA","33222","12920","NA","576","2","legacy","1024","2","48000","-16","experiment","SSSSS","4","even","36855","194783","NA","217865","204606","NA","229515","228443","3624","181861","NA","229627","230205","229505","229627","3602","Flanker Task","97","59030","100","yes","1024"
"97.0297029703","97.0297029703","588.495049505","588.495049505","black","legacy","legacy","legacy","0","Incongruent","uniform","1","undefined","1","h","0","0","0","100","100","0","100","100","0","0","0","100","100","100","100","0","Fri Sep  7 17:03:58 2018","600","The main experiment item","yes","FlankerTask.osexp","/Users/emmaleemorgan/Desktop","no","mono","no","18","no","white","no","yes","768","legacy","20","79","/Users/emmaleemorgan/Desktop/EM subject-4, f, 36.csv","legacy","Kafkaesque Koffka","3.2.5","0","h","NA","s","h","NA","h","408","NA","33222","12920","NA","408","2","legacy","1024","2","48000","-16","experiment","SSHSS","4","even","36855","194783","NA","217865","204606","NA","231286","230218","3624","181861","NA","231398","231808","231275","231398","3602","Flanker Task","98","59438","101","yes","1024"
"97.0588235294","97.0588235294","587.764705882","587.764705882","black","legacy","legacy","legacy","0","Congruent","uniform","1","undefined","1","h","0","0","0","101","101","0","101","101","0","0","0","101","101","101","101","0","Fri Sep  7 17:03:58 2018","600","The main experiment item","yes","FlankerTask.osexp","/Users/emmaleemorgan/Desktop","no","mono","no","18","no","white","no","yes","768","legacy","21","79","/Users/emmaleemorgan/Desktop/EM subject-4, f, 36.csv","legacy","Kafkaesque Koffka","3.2.5","0","h","NA","s","h","NA","h","514","NA","33222","12920","NA","514","2","legacy","1024","2","48000","-16","experiment","HHHHH","4","even","36855","194783","NA","217865","204606","NA","232893","231821","3624","181861","NA","233004","233520","232882","233004","3602","Flanker Task","99","59952","102","yes","1024"
"97.0873786408","97.0873786408","586.223300971","586.223300971","black","legacy","legacy","legacy","0","Congruent","uniform","1","undefined","1","h","0","0","0","102","102","0","102","102","0","0","0","102","102","102","102","0","Fri Sep  7 17:03:58 2018","600","The main experiment item","yes","FlankerTask.osexp","/Users/emmaleemorgan/Desktop","no","mono","no","18","no","white","no","yes","768","legacy","22","79","/Users/emmaleemorgan/Desktop/EM subject-4, f, 36.csv","legacy","Kafkaesque Koffka","3.2.5","0","h","NA","s","h","NA","h","429","NA","33222","12920","NA","429","2","legacy","1024","2","48000","-16","experiment","HHHHH","4","even","36855","194783","NA","217865","204606","NA","234603","233533","3624","181861","NA","234715","235146","234593","234715","3602","Flanker Task","100","60381","103","yes","1024"
"97.1153846154","97.1153846154","584.730769231","584.730769231","black","legacy","legacy","legacy","0","Incongruent","uniform","1","undefined","1","h","0","0","0","103","103","0","103","103","0","0","0","103","103","103","103","0","Fri Sep  7 17:03:58 2018","600","The main experiment item","yes","FlankerTask.osexp","/Users/emmaleemorgan/Desktop","no","mono","no","18","no","white","no","yes","768","legacy","23","79","/Users/emmaleemorgan/Desktop/EM subject-4, f, 36.csv","legacy","Kafkaesque Koffka","3.2.5","0","h","NA","s","h","NA","h","431","NA","33222","12920","NA","431","2","legacy","1024","2","48000","-16","experiment","SSHSS","4","even","36855","194783","NA","217865","204606","NA","236229","235159","3624","181861","NA","236340","236773","236219","236340","3602","Flanker Task","101","60812","104","yes","1024"
"97.1428571429","97.1428571429","583.19047619","583.19047619","black","legacy","legacy","legacy","0","Incongruent","uniform","1","undefined","1","h","0","0","0","104","104","0","104","104","0","0","0","104","104","104","104","0","Fri Sep  7 17:03:58 2018","600","The main experiment item","yes","FlankerTask.osexp","/Users/emmaleemorgan/Desktop","no","mono","no","18","no","white","no","yes","768","legacy","24","79","/Users/emmaleemorgan/Desktop/EM subject-4, f, 36.csv","legacy","Kafkaesque Koffka","3.2.5","0","h","NA","s","h","NA","h","423","NA","33222","12920","NA","423","2","legacy","1024","2","48000","-16","experiment","SSHSS","4","even","36855","194783","NA","217865","204606","NA","237852","236785","3624","181861","NA","237964","238389","237842","237964","3602","Flanker Task","102","61235","105","yes","1024"
"97.1698113208","97.1698113208","581.547169811","581.547169811","black","legacy","legacy","legacy","0","Congruent","uniform","1","undefined","1","s","0","0","0","105","105","0","105","105","0","0","0","105","105","105","105","0","Fri Sep  7 17:03:58 2018","600","The main experiment item","yes","FlankerTask.osexp","/Users/emmaleemorgan/Desktop","no","mono","no","18","no","white","no","yes","768","legacy","25","79","/Users/emmaleemorgan/Desktop/EM subject-4, f, 36.csv","legacy","Kafkaesque Koffka","3.2.5","0","s","NA","s","h","NA","s","409","NA","33222","12920","NA","409","2","legacy","1024","2","48000","-16","experiment","SSSSS","4","even","36855","194783","NA","217865","204606","NA","239470","238402","3624","181861","NA","239582","239993","239459","239582","3602","Flanker Task","103","61644","106","yes","1024"
"97.1962616822","97.1962616822","580.598130841","580.598130841","black","legacy","legacy","legacy","0","Incongruent","uniform","1","undefined","1","h","0","0","0","106","106","0","106","106","0","0","0","106","106","106","106","0","Fri Sep  7 17:03:58 2018","600","The main experiment item","yes","FlankerTask.osexp","/Users/emmaleemorgan/Desktop","no","mono","no","18","no","white","no","yes","768","legacy","26","79","/Users/emmaleemorgan/Desktop/EM subject-4, f, 36.csv","legacy","Kafkaesque Koffka","3.2.5","0","h","NA","s","h","NA","h","480","NA","33222","12920","NA","480","2","legacy","1024","2","48000","-16","experiment","SSHSS","4","even","36855","194783","NA","217865","204606","NA","241073","240005","3624","181861","NA","241185","241667","241062","241185","3602","Flanker Task","104","62124","107","yes","1024"
"97.2222222222","97.2222222222","580.537037037","580.537037037","black","legacy","legacy","legacy","0","Congruent","uniform","1","undefined","1","s","0","0","0","107","107","0","107","107","0","0","0","107","107","107","107","0","Fri Sep  7 17:03:58 2018","600","The main experiment item","yes","FlankerTask.osexp","/Users/emmaleemorgan/Desktop","no","mono","no","18","no","white","no","yes","768","legacy","27","79","/Users/emmaleemorgan/Desktop/EM subject-4, f, 36.csv","legacy","Kafkaesque Koffka","3.2.5","0","s","NA","s","h","NA","s","574","NA","33222","12920","NA","574","2","legacy","1024","2","48000","-16","experiment","SSSSS","4","even","36855","194783","NA","217865","204606","NA","242751","241679","3624","181861","NA","242864","243440","242740","242863","3602","Flanker Task","105","62698","108","yes","1024"
"96.3302752294","96.3302752294","579.688073394","579.688073394","black","legacy","legacy","legacy","0","Congruent","uniform","0","undefined","0","s","0","0","0","108","108","0","108","108","0","0","0","108","108","108","108","0","Fri Sep  7 17:03:58 2018","600","The main experiment item","yes","FlankerTask.osexp","/Users/emmaleemorgan/Desktop","no","mono","no","18","no","white","no","yes","768","legacy","28","79","/Users/emmaleemorgan/Desktop/EM subject-4, f, 36.csv","legacy","Kafkaesque Koffka","3.2.5","0","h","NA","s","h","NA","h","488","NA","33222","12920","NA","488","2","legacy","1024","2","48000","-16","experiment","SSSSS","4","even","36855","194783","NA","217865","204606","NA","244526","243453","3624","181861","NA","244636","245126","244516","244636","3602","Flanker Task","105","63186","109","yes","1024"
"96.3636363636","96.3636363636","580.409090909","580.409090909","black","legacy","legacy","legacy","0","Incongruent","uniform","1","undefined","1","s","0","0","0","109","109","0","109","109","0","0","0","109","109","109","109","0","Fri Sep  7 17:03:58 2018","600","The main experiment item","yes","FlankerTask.osexp","/Users/emmaleemorgan/Desktop","no","mono","no","18","no","white","no","yes","768","legacy","29","79","/Users/emmaleemorgan/Desktop/EM subject-4, f, 36.csv","legacy","Kafkaesque Koffka","3.2.5","0","s","NA","s","h","NA","s","659","NA","33222","12920","NA","659","2","legacy","1024","2","48000","-16","experiment","HHSHH","4","even","36855","194783","NA","245140","204606","NA","246722","245651","3624","181861","NA","246832","247493","246712","246832","3602","Flanker Task","106","63845","110","yes","1024"
"96.3963963964","96.3963963964","580.504504505","580.504504505","black","legacy","legacy","legacy","0","Congruent","uniform","1","undefined","1","s","0","0","0","110","110","0","110","110","0","0","0","110","110","110","110","0","Fri Sep  7 17:03:58 2018","600","The main experiment item","yes","FlankerTask.osexp","/Users/emmaleemorgan/Desktop","no","mono","no","18","no","white","no","yes","768","legacy","30","79","/Users/emmaleemorgan/Desktop/EM subject-4, f, 36.csv","legacy","Kafkaesque Koffka","3.2.5","0","s","NA","s","h","NA","s","591","NA","33222","12920","NA","591","2","legacy","1024","2","48000","-16","experiment","SSSSS","4","even","36855","194783","NA","245140","247506","NA","249086","248017","3624","181861","NA","249197","249790","249076","249196","3602","Flanker Task","107","64436","111","yes","1024"
"96.4285714286","96.4285714286","579.660714286","579.660714286","black","legacy","legacy","legacy","0","Congruent","uniform","1","undefined","1","s","0","0","0","111","111","0","111","111","0","0","0","111","111","111","111","0","Fri Sep  7 17:03:58 2018","600","The main experiment item","yes","FlankerTask.osexp","/Users/emmaleemorgan/Desktop","no","mono","no","18","no","white","no","yes","768","legacy","31","79","/Users/emmaleemorgan/Desktop/EM subject-4, f, 36.csv","legacy","Kafkaesque Koffka","3.2.5","0","s","NA","s","h","NA","s","486","NA","33222","12920","NA","486","2","legacy","1024","2","48000","-16","experiment","SSSSS","4","even","36855","194783","NA","245140","247506","NA","250871","249803","3624","181861","NA","250983","251471","250861","250983","3602","Flanker Task","108","64922","112","yes","1024"
"96.4601769912","96.4601769912","578.699115044","578.699115044","black","legacy","legacy","legacy","0","Incongruent","uniform","1","undefined","1","h","0","0","0","112","112","0","112","112","0","0","0","112","112","112","112","0","Fri Sep  7 17:03:58 2018","600","The main experiment item","yes","FlankerTask.osexp","/Users/emmaleemorgan/Desktop","no","mono","no","18","no","white","no","yes","768","legacy","32","79","/Users/emmaleemorgan/Desktop/EM subject-4, f, 36.csv","legacy","Kafkaesque Koffka","3.2.5","0","h","NA","s","h","NA","h","471","NA","33222","12920","NA","471","2","legacy","1024","2","48000","-16","experiment","SSHSS","4","even","36855","194783","NA","245140","247506","NA","252554","251484","3624","181861","NA","252666","253139","252544","252666","3602","Flanker Task","109","65393","113","yes","1024"
"96.4912280702","96.4912280702","578.192982456","578.192982456","black","legacy","legacy","legacy","0","Incongruent","uniform","1","undefined","1","h","0","0","0","113","113","0","113","113","0","0","0","113","113","113","113","0","Fri Sep  7 17:03:58 2018","600","The main experiment item","yes","FlankerTask.osexp","/Users/emmaleemorgan/Desktop","no","mono","no","18","no","white","no","yes","768","legacy","33","79","/Users/emmaleemorgan/Desktop/EM subject-4, f, 36.csv","legacy","Kafkaesque Koffka","3.2.5","0","h","NA","s","h","NA","h","521","NA","33222","12920","NA","521","2","legacy","1024","2","48000","-16","experiment","SSHSS","4","even","36855","194783","NA","245140","247506","NA","254221","253152","3624","181861","NA","254336","254859","254211","254336","3602","Flanker Task","110","65914","114","yes","1024"
"96.5217391304","96.5217391304","577.556521739","577.556521739","black","legacy","legacy","legacy","0","Congruent","uniform","1","undefined","1","h","0","0","0","114","114","0","114","114","0","0","0","114","114","114","114","0","Fri Sep  7 17:03:58 2018","600","The main experiment item","yes","FlankerTask.osexp","/Users/emmaleemorgan/Desktop","no","mono","no","18","no","white","no","yes","768","legacy","34","79","/Users/emmaleemorgan/Desktop/EM subject-4, f, 36.csv","legacy","Kafkaesque Koffka","3.2.5","0","h","NA","s","h","NA","h","505","NA","33222","12920","NA","505","2","legacy","1024","2","48000","-16","experiment","HHHHH","4","even","36855","194783","NA","245140","247506","NA","255944","254872","3624","181861","NA","256057","256564","255933","256057","3602","Flanker Task","111","66419","115","yes","1024"
"96.5517241379","96.5517241379","576.887931034","576.887931034","black","legacy","legacy","legacy","0","Congruent","uniform","1","undefined","1","s","0","0","0","115","115","0","115","115","0","0","0","115","115","115","115","0","Fri Sep  7 17:03:58 2018","600","The main experiment item","yes","FlankerTask.osexp","/Users/emmaleemorgan/Desktop","no","mono","no","18","no","white","no","yes","768","legacy","35","79","/Users/emmaleemorgan/Desktop/EM subject-4, f, 36.csv","legacy","Kafkaesque Koffka","3.2.5","0","s","NA","s","h","NA","s","500","NA","33222","12920","NA","500","2","legacy","1024","2","48000","-16","experiment","SSSSS","4","even","36855","194783","NA","245140","247506","NA","257648","256577","3624","181861","NA","257760","258262","257638","257760","3602","Flanker Task","112","66919","116","yes","1024"
"96.5811965812","96.5811965812","575.47008547","575.47008547","black","legacy","legacy","legacy","0","Incongruent","uniform","1","undefined","1","h","0","0","0","116","116","0","116","116","0","0","0","116","116","116","116","0","Fri Sep  7 17:03:58 2018","600","The main experiment item","yes","FlankerTask.osexp","/Users/emmaleemorgan/Desktop","no","mono","no","18","no","white","no","yes","768","legacy","36","79","/Users/emmaleemorgan/Desktop/EM subject-4, f, 36.csv","legacy","Kafkaesque Koffka","3.2.5","0","h","NA","s","h","NA","h","411","NA","33222","12920","NA","411","2","legacy","1024","2","48000","-16","experiment","SSHSS","4","even","36855","194783","NA","245140","247506","NA","259346","258276","3624","181861","NA","259459","259872","259336","259458","3602","Flanker Task","113","67330","117","yes","1024"
"96.6101694915","96.6101694915","575.491525424","575.491525424","black","legacy","legacy","legacy","0","Incongruent","uniform","1","undefined","1","s","0","0","0","117","117","0","117","117","0","0","0","117","117","117","117","0","Fri Sep  7 17:03:58 2018","600","The main experiment item","yes","FlankerTask.osexp","/Users/emmaleemorgan/Desktop","no","mono","no","18","no","white","no","yes","768","legacy","37","79","/Users/emmaleemorgan/Desktop/EM subject-4, f, 36.csv","legacy","Kafkaesque Koffka","3.2.5","0","s","NA","s","h","NA","s","578","NA","33222","12920","NA","578","2","legacy","1024","2","48000","-16","experiment","HHSHH","4","even","36855","194783","NA","245140","247506","NA","260954","259885","3624","181861","NA","261066","261646","260944","261066","3602","Flanker Task","114","67908","118","yes","1024"
"96.6386554622","96.6386554622","574","574","black","legacy","legacy","legacy","0","Congruent","uniform","1","undefined","1","h","0","0","0","118","118","0","118","118","0","0","0","118","118","118","118","0","Fri Sep  7 17:03:58 2018","600","The main experiment item","yes","FlankerTask.osexp","/Users/emmaleemorgan/Desktop","no","mono","no","18","no","white","no","yes","768","legacy","38","79","/Users/emmaleemorgan/Desktop/EM subject-4, f, 36.csv","legacy","Kafkaesque Koffka","3.2.5","0","h","NA","s","h","NA","h","398","NA","33222","12920","NA","398","2","legacy","1024","2","48000","-16","experiment","HHHHH","4","even","36855","194783","NA","245140","247506","NA","262731","261659","3624","181861","NA","262843","263243","262721","262843","3602","Flanker Task","115","68306","119","yes","1024"
"96.6666666667","96.6666666667","573.008333333","573.008333333","black","legacy","legacy","legacy","0","Congruent","uniform","1","undefined","1","h","0","0","0","119","119","0","119","119","0","0","0","119","119","119","119","0","Fri Sep  7 17:03:58 2018","600","The main experiment item","yes","FlankerTask.osexp","/Users/emmaleemorgan/Desktop","no","mono","no","18","no","white","no","yes","768","legacy","39","79","/Users/emmaleemorgan/Desktop/EM subject-4, f, 36.csv","legacy","Kafkaesque Koffka","3.2.5","0","h","NA","s","h","NA","h","455","NA","33222","12920","NA","455","2","legacy","1024","2","48000","-16","experiment","HHHHH","4","even","36855","194783","NA","245140","247506","NA","264329","263256","3624","181861","NA","264440","264897","264318","264440","3602","Flanker Task","116","68761","120","yes","1024"
"96.694214876","96.694214876","571.73553719","571.73553719","black","legacy","legacy","legacy","0","Congruent","uniform","1","undefined","1","s","0","0","0","120","120","0","120","120","0","0","0","120","120","120","120","0","Fri Sep  7 17:03:58 2018","600","The main experiment item","yes","FlankerTask.osexp","/Users/emmaleemorgan/Desktop","no","mono","no","18","no","white","no","yes","768","legacy","40","79","/Users/emmaleemorgan/Desktop/EM subject-4, f, 36.csv","legacy","Kafkaesque Koffka","3.2.5","0","s","NA","s","h","NA","s","419","NA","33222","12920","NA","419","2","legacy","1024","2","48000","-16","experiment","SSSSS","4","even","36855","194783","NA","245140","247506","NA","265981","264910","3624","181861","NA","266093","266514","265971","266093","3602","Flanker Task","117","69180","121","yes","1024"
"96.7213114754","96.7213114754","571.262295082","571.262295082","black","legacy","legacy","legacy","0","Congruent","uniform","1","undefined","1","s","0","0","0","121","121","0","121","121","0","0","0","121","121","121","121","0","Fri Sep  7 17:03:58 2018","600","The main experiment item","yes","FlankerTask.osexp","/Users/emmaleemorgan/Desktop","no","mono","no","18","no","white","no","yes","768","legacy","41","79","/Users/emmaleemorgan/Desktop/EM subject-4, f, 36.csv","legacy","Kafkaesque Koffka","3.2.5","0","s","NA","s","h","NA","s","514","NA","33222","12920","NA","514","2","legacy","1024","2","48000","-16","experiment","SSSSS","4","even","36855","194783","NA","245140","247506","NA","267597","266526","3624","181861","NA","267709","268225","267587","267709","3602","Flanker Task","118","69694","122","yes","1024"
"96.7479674797","96.7479674797","570.504065041","570.504065041","black","legacy","legacy","legacy","0","Congruent","uniform","1","undefined","1","s","0","0","0","122","122","0","122","122","0","0","0","122","122","122","122","0","Fri Sep  7 17:03:58 2018","600","The main experiment item","yes","FlankerTask.osexp","/Users/emmaleemorgan/Desktop","no","mono","no","18","no","white","no","yes","768","legacy","42","79","/Users/emmaleemorgan/Desktop/EM subject-4, f, 36.csv","legacy","Kafkaesque Koffka","3.2.5","0","s","NA","s","h","NA","s","478","NA","33222","12920","NA","478","2","legacy","1024","2","48000","-16","experiment","SSSSS","4","even","36855","194783","NA","245140","247506","NA","269309","268237","3624","181861","NA","269421","269901","269299","269421","3602","Flanker Task","119","70172","123","yes","1024"
"96.7741935484","96.7741935484","570.443548387","570.443548387","black","legacy","legacy","legacy","0","Incongruent","uniform","1","undefined","1","s","0","0","0","123","123","0","123","123","0","0","0","123","123","123","123","0","Fri Sep  7 17:03:58 2018","600","The main experiment item","yes","FlankerTask.osexp","/Users/emmaleemorgan/Desktop","no","mono","no","18","no","white","no","yes","768","legacy","43","79","/Users/emmaleemorgan/Desktop/EM subject-4, f, 36.csv","legacy","Kafkaesque Koffka","3.2.5","0","s","NA","s","h","NA","s","563","NA","33222","12920","NA","563","2","legacy","1024","2","48000","-16","experiment","HHSHH","4","even","36855","194783","NA","245140","247506","NA","270999","269913","3624","181861","NA","271110","271675","270989","271110","3602","Flanker Task","120","70735","124","yes","1024"
"96.8","96.8","569.888","569.888","black","legacy","legacy","legacy","0","Incongruent","uniform","1","undefined","1","s","0","0","0","124","124","0","124","124","0","0","0","124","124","124","124","0","Fri Sep  7 17:03:58 2018","600","The main experiment item","yes","FlankerTask.osexp","/Users/emmaleemorgan/Desktop","no","mono","no","18","no","white","no","yes","768","legacy","44","79","/Users/emmaleemorgan/Desktop/EM subject-4, f, 36.csv","legacy","Kafkaesque Koffka","3.2.5","0","s","NA","s","h","NA","s","501","NA","33222","12920","NA","501","2","legacy","1024","2","48000","-16","experiment","HHSHH","4","even","36855","194783","NA","245140","247506","NA","272760","271688","3624","181861","NA","272872","273375","272749","272872","3602","Flanker Task","121","71236","125","yes","1024"
