"acc","accuracy","average_response_time","avg_rt","background","bidi","canvas_backend","clock_backend","color_backend","compensation","condition","coordinates","correct","correct_instructions","correct_keyboard_response","correct_response","count_Block1","count_Block2","count_Block3","count_Fixation","count_ISI","count_Sequence","count_errorFeedback","count_experiment","count_faster","count_finish","count_getting_started","count_instructions","count_instructions2","count_instructions3","count_keyboard_response","count_logger","count_stimulus","count_welcome","datetime","deadline","description","disable_garbage_collection","experiment_file","experiment_path","font_bold","font_family","font_italic","font_size","font_underline","foreground","form_clicks","fullscreen","height","keyboard_backend","live_row","live_row_Block1","logfile","mouse_backend","opensesame_codename","opensesame_version","repeat_cycle","response","response_finish","response_instructions","response_instructions2","response_instructions3","response_keyboard_response","response_time","response_time_finish","response_time_instructions","response_time_instructions2","response_time_instructions3","response_time_keyboard_response","response_time_welcome","response_welcome","round_decimals","sampler_backend","sound_buf_size","sound_channels","sound_freq","sound_sample_size","start","stimulus","subject_nr","subject_parity","time_Block1","time_Block2","time_Block3","time_Fixation","time_ISI","time_Sequence","time_errorFeedback","time_experiment","time_faster","time_finish","time_getting_started","time_instructions","time_instructions2","time_instructions3","time_keyboard_response","time_logger","time_stimulus","time_welcome","title","total_correct","total_response_time","total_responses","uniform_coordinates","width"
"100","100","931","931","black","no","xpyriment","legacy","legacy","0","incongruent","uniform","1","undefined","1","h","0","0","0","0","0","0","0","0","0","0","NA","0","0","0","0","0","0","NA","09/08/18 21:07:28","1500","The main experiment item","yes","Flankertest.osexp","C:\Users\Knitwitty\AppData\Roaming","no","mono","no","18","no","white","no","yes","768","legacy","0","0","C:/Users/Knitwitty/AppData/Roaming/KB-subject-1.csv","xpyriment","Jazzy James","3.1.9","0","h","NA","s","NA","NA","h","931","NA","20829","NA","NA","931","NA","NA","2","legacy","1024","2","48000","-16","experiment","SSHSS","1","odd","31598","NA","NA","32429","NA","32380","NA","10729","NA","NA","NA","10768","NA","NA","32545","33478","32545","NA","Flanker test","1","931","1","yes","1024"
"100","100","825","825","black","no","xpyriment","legacy","legacy","0","incongruent","uniform","1","undefined","1","s","0","0","0","1","1","1","1","0","1","0","NA","0","0","0","1","1","1","NA","09/08/18 21:07:28","1500","The main experiment item","yes","Flankertest.osexp","C:\Users\Knitwitty\AppData\Roaming","no","mono","no","18","no","white","no","yes","768","legacy","1","1","C:/Users/Knitwitty/AppData/Roaming/KB-subject-1.csv","xpyriment","Jazzy James","3.1.9","0","s","NA","s","NA","NA","s","719","NA","20829","NA","NA","719","NA","NA","2","legacy","1024","2","48000","-16","experiment","HHSHH","1","odd","31598","NA","NA","35376","33517","35334","NA","10729","NA","NA","NA","10768","NA","NA","35493","36213","35492","NA","Flanker test","2","1650","2","yes","1024"
"100","100","748.333333333","748.333333333","black","no","xpyriment","legacy","legacy","0","incongruent","uniform","1","undefined","1","s","0","0","0","2","2","2","2","0","2","0","NA","0","0","0","2","2","2","NA","09/08/18 21:07:28","1500","The main experiment item","yes","Flankertest.osexp","C:\Users\Knitwitty\AppData\Roaming","no","mono","no","18","no","white","no","yes","768","legacy","2","2","C:/Users/Knitwitty/AppData/Roaming/KB-subject-1.csv","xpyriment","Jazzy James","3.1.9","0","s","NA","s","NA","NA","s","595","NA","20829","NA","NA","595","NA","NA","2","legacy","1024","2","48000","-16","experiment","HHSHH","1","odd","31598","NA","NA","38084","36237","38048","NA","10729","NA","NA","NA","10768","NA","NA","38201","38797","38201","NA","Flanker test","3","2245","3","yes","1024"
"100","100","709.5","709.5","black","no","xpyriment","legacy","legacy","0","congruent","uniform","1","undefined","1","s","0","0","0","3","3","3","3","0","3","0","NA","0","0","0","3","3","3","NA","09/08/18 21:07:28","1500","The main experiment item","yes","Flankertest.osexp","C:\Users\Knitwitty\AppData\Roaming","no","mono","no","18","no","white","no","yes","768","legacy","3","3","C:/Users/Knitwitty/AppData/Roaming/KB-subject-1.csv","xpyriment","Jazzy James","3.1.9","0","s","NA","s","NA","NA","s","593","NA","20829","NA","NA","593","NA","NA","2","legacy","1024","2","48000","-16","experiment","SSSSS","1","odd","31598","NA","NA","40696","38836","40661","NA","10729","NA","NA","NA","10768","NA","NA","40812","41406","40811","NA","Flanker test","4","2838","4","yes","1024"
"100","100","659.2","659.2","black","no","xpyriment","legacy","legacy","0","congruent","uniform","1","undefined","1","h","0","0","0","4","4","4","4","0","4","0","NA","0","0","0","4","4","4","NA","09/08/18 21:07:28","1500","The main experiment item","yes","Flankertest.osexp","C:\Users\Knitwitty\AppData\Roaming","no","mono","no","18","no","white","no","yes","768","legacy","4","4","C:/Users/Knitwitty/AppData/Roaming/KB-subject-1.csv","xpyriment","Jazzy James","3.1.9","0","h","NA","s","NA","NA","h","458","NA","20829","NA","NA","458","NA","NA","2","legacy","1024","2","48000","-16","experiment","HHHHH","1","odd","31598","NA","NA","43392","41543","43358","NA","10729","NA","NA","NA","10768","NA","NA","43507","43966","43507","NA","Flanker test","5","3296","5","yes","1024"
"100","100","624.166666667","624.166666667","black","no","xpyriment","legacy","legacy","0","congruent","uniform","1","undefined","1","h","0","0","0","5","5","5","5","0","5","0","NA","0","0","0","5","5","5","NA","09/08/18 21:07:28","1500","The main experiment item","yes","Flankertest.osexp","C:\Users\Knitwitty\AppData\Roaming","no","mono","no","18","no","white","no","yes","768","legacy","5","5","C:/Users/Knitwitty/AppData/Roaming/KB-subject-1.csv","xpyriment","Jazzy James","3.1.9","0","h","NA","s","NA","NA","h","449","NA","20829","NA","NA","449","NA","NA","2","legacy","1024","2","48000","-16","experiment","HHHHH","1","odd","31598","NA","NA","45830","43989","45791","NA","10729","NA","NA","NA","10768","NA","NA","45947","46398","45947","NA","Flanker test","6","3745","6","yes","1024"
"85.7142857143","85.7142857143","589.428571429","589.428571429","black","no","xpyriment","legacy","legacy","0","incongruent","uniform","0","undefined","0","h","0","0","0","6","6","6","6","0","6","0","NA","0","0","0","6","6","6","NA","09/08/18 21:07:28","1500","The main experiment item","yes","Flankertest.osexp","C:\Users\Knitwitty\AppData\Roaming","no","mono","no","18","no","white","no","yes","768","legacy","6","6","C:/Users/Knitwitty/AppData/Roaming/KB-subject-1.csv","xpyriment","Jazzy James","3.1.9","0","s","NA","s","NA","NA","s","381","NA","20829","NA","NA","381","NA","NA","2","legacy","1024","2","48000","-16","experiment","SSHSS","1","odd","31598","NA","NA","48298","46422","48264","NA","10729","NA","NA","NA","10768","NA","NA","48415","48797","48414","NA","Flanker test","6","4126","7","yes","1024"
"87.5","87.5","581.25","581.25","black","no","xpyriment","legacy","legacy","0","congruent","uniform","1","undefined","1","s","0","0","0","7","7","7","7","0","7","0","NA","0","0","0","7","7","7","NA","09/08/18 21:07:28","1500","The main experiment item","yes","Flankertest.osexp","C:\Users\Knitwitty\AppData\Roaming","no","mono","no","18","no","white","no","yes","768","legacy","7","7","C:/Users/Knitwitty/AppData/Roaming/KB-subject-1.csv","xpyriment","Jazzy James","3.1.9","0","s","NA","s","NA","NA","s","524","NA","20829","NA","NA","524","NA","NA","2","legacy","1024","2","48000","-16","experiment","SSSSS","1","odd","31598","NA","NA","51154","49322","51121","48815","10729","NA","NA","NA","10768","NA","NA","51272","51798","51272","NA","Flanker test","7","4650","8","yes","1024"
"88.8888888889","88.8888888889","576","576","black","no","xpyriment","legacy","legacy","0","incongruent","uniform","1","undefined","1","s","0","0","0","8","8","8","8","0","8","0","NA","0","0","0","8","8","8","NA","09/08/18 21:07:28","1500","The main experiment item","yes","Flankertest.osexp","C:\Users\Knitwitty\AppData\Roaming","no","mono","no","18","no","white","no","yes","768","legacy","8","8","C:/Users/Knitwitty/AppData/Roaming/KB-subject-1.csv","xpyriment","Jazzy James","3.1.9","0","s","NA","s","NA","NA","s","534","NA","20829","NA","NA","534","NA","NA","2","legacy","1024","2","48000","-16","experiment","HHSHH","1","odd","31598","NA","NA","53673","51816","53634","48815","10729","NA","NA","NA","10768","NA","NA","53791","54326","53790","NA","Flanker test","8","5184","9","yes","1024"
"90","90","562.6","562.6","black","no","xpyriment","legacy","legacy","0","incongruent","uniform","1","undefined","1","s","0","0","0","9","9","9","9","0","9","0","NA","0","0","0","9","9","9","NA","09/08/18 21:07:28","1500","The main experiment item","yes","Flankertest.osexp","C:\Users\Knitwitty\AppData\Roaming","no","mono","no","18","no","white","no","yes","768","legacy","9","9","C:/Users/Knitwitty/AppData/Roaming/KB-subject-1.csv","xpyriment","Jazzy James","3.1.9","0","s","NA","s","NA","NA","s","442","NA","20829","NA","NA","442","NA","NA","2","legacy","1024","2","48000","-16","experiment","HHSHH","1","odd","31598","NA","NA","56205","54350","56163","48815","10729","NA","NA","NA","10768","NA","NA","56322","56766","56321","NA","Flanker test","9","5626","10","yes","1024"
"81.8181818182","81.8181818182","548.454545455","548.454545455","black","no","xpyriment","legacy","legacy","0","incongruent","uniform","0","undefined","0","h","0","0","0","10","10","10","10","0","10","0","NA","0","0","0","10","10","10","NA","09/08/18 21:07:28","1500","The main experiment item","yes","Flankertest.osexp","C:\Users\Knitwitty\AppData\Roaming","no","mono","no","18","no","white","no","yes","768","legacy","10","10","C:/Users/Knitwitty/AppData/Roaming/KB-subject-1.csv","xpyriment","Jazzy James","3.1.9","0","s","NA","s","NA","NA","s","407","NA","20829","NA","NA","407","NA","NA","2","legacy","1024","2","48000","-16","experiment","SSHSS","1","odd","31598","NA","NA","58639","56805","58605","48815","10729","NA","NA","NA","10768","NA","NA","58757","59166","58756","NA","Flanker test","9","6033","11","yes","1024"
"83.3333333333","83.3333333333","541.666666667","541.666666667","black","no","xpyriment","legacy","legacy","0","congruent","uniform","1","undefined","1","h","0","0","0","11","11","11","11","0","11","0","NA","0","0","0","11","11","11","NA","09/08/18 21:07:28","1500","The main experiment item","yes","Flankertest.osexp","C:\Users\Knitwitty\AppData\Roaming","no","mono","no","18","no","white","no","yes","768","legacy","11","11","C:/Users/Knitwitty/AppData/Roaming/KB-subject-1.csv","xpyriment","Jazzy James","3.1.9","0","h","NA","s","NA","NA","h","467","NA","20829","NA","NA","467","NA","NA","2","legacy","1024","2","48000","-16","experiment","HHHHH","1","odd","31598","NA","NA","61548","59692","61513","59185","10729","NA","NA","NA","10768","NA","NA","61665","62134","61665","NA","Flanker test","10","6500","12","yes","1024"
"84.6153846154","84.6153846154","539.538461538","539.538461538","black","no","xpyriment","legacy","legacy","0","congruent","uniform","1","undefined","1","h","0","0","0","12","12","12","12","0","12","0","NA","0","0","0","12","12","12","NA","09/08/18 21:07:28","1500","The main experiment item","yes","Flankertest.osexp","C:\Users\Knitwitty\AppData\Roaming","no","mono","no","18","no","white","no","yes","768","legacy","12","12","C:/Users/Knitwitty/AppData/Roaming/KB-subject-1.csv","xpyriment","Jazzy James","3.1.9","0","h","NA","s","NA","NA","h","514","NA","20829","NA","NA","514","NA","NA","2","legacy","1024","2","48000","-16","experiment","HHHHH","1","odd","31598","NA","NA","64036","62152","63996","59185","10729","NA","NA","NA","10768","NA","NA","64154","64670","64153","NA","Flanker test","11","7014","13","yes","1024"
"78.5714285714","78.5714285714","608.214285714","608.214285714","black","no","xpyriment","legacy","legacy","0","congruent","uniform","0","undefined","0","h","0","0","0","13","13","13","13","0","13","0","NA","0","0","0","13","13","13","NA","09/08/18 21:07:28","1500","The main experiment item","yes","Flankertest.osexp","C:\Users\Knitwitty\AppData\Roaming","no","mono","no","18","no","white","no","yes","768","legacy","13","13","C:/Users/Knitwitty/AppData/Roaming/KB-subject-1.csv","xpyriment","Jazzy James","3.1.9","0","None","NA","s","NA","NA","None","1501","NA","20829","NA","NA","1501","NA","NA","2","legacy","1024","2","48000","-16","experiment","HHHHH","1","odd","31598","NA","NA","66990","64693","66506","59185","10729","NA","NA","NA","10768","NA","NA","67095","68597","67095","NA","Flanker test","11","8515","14","yes","1024"
"80","80","641.733333333","641.733333333","black","no","xpyriment","legacy","legacy","0","incongruent","uniform","1","undefined","1","s","0","0","0","14","14","14","14","0","14","0","NA","0","0","0","14","14","14","NA","09/08/18 21:07:28","1500","The main experiment item","yes","Flankertest.osexp","C:\Users\Knitwitty\AppData\Roaming","no","mono","no","18","no","white","no","yes","768","legacy","14","14","C:/Users/Knitwitty/AppData/Roaming/KB-subject-1.csv","xpyriment","Jazzy James","3.1.9","0","s","NA","s","NA","NA","s","1111","NA","20829","NA","NA","1111","NA","NA","2","legacy","1024","2","48000","-16","experiment","HHSHH","1","odd","31598","NA","NA","71747","69618","71512","68613","10729","69116","NA","NA","10768","NA","NA","71869","72982","71869","NA","Flanker test","12","9626","15","yes","1024"
"81.25","81.25","640","640","black","no","xpyriment","legacy","legacy","0","congruent","uniform","1","undefined","1","s","0","0","0","15","15","15","15","0","15","0","NA","0","0","0","15","15","15","NA","09/08/18 21:07:28","1500","The main experiment item","yes","Flankertest.osexp","C:\Users\Knitwitty\AppData\Roaming","no","mono","no","18","no","white","no","yes","768","legacy","15","15","C:/Users/Knitwitty/AppData/Roaming/KB-subject-1.csv","xpyriment","Jazzy James","3.1.9","0","s","NA","s","NA","NA","s","614","NA","20829","NA","NA","614","NA","NA","2","legacy","1024","2","48000","-16","experiment","SSSSS","1","odd","31598","NA","NA","74858","73000","74817","68613","10729","69116","NA","NA","10768","NA","NA","74975","75590","74975","NA","Flanker test","13","10240","16","yes","1024"
"82.3529411765","82.3529411765","645.764705882","645.764705882","black","no","xpyriment","legacy","legacy","0","incongruent","uniform","1","undefined","1","s","0","0","0","16","16","16","16","0","16","0","NA","0","0","0","16","16","16","NA","09/08/18 21:07:28","1500","The main experiment item","yes","Flankertest.osexp","C:\Users\Knitwitty\AppData\Roaming","no","mono","no","18","no","white","no","yes","768","legacy","16","16","C:/Users/Knitwitty/AppData/Roaming/KB-subject-1.csv","xpyriment","Jazzy James","3.1.9","0","s","NA","s","NA","NA","s","738","NA","20829","NA","NA","738","NA","NA","2","legacy","1024","2","48000","-16","experiment","HHSHH","1","odd","31598","NA","NA","77582","75718","77547","68613","10729","69116","NA","NA","10768","NA","NA","77699","78439","77698","NA","Flanker test","14","10978","17","yes","1024"
"83.3333333333","83.3333333333","637.166666667","637.166666667","black","no","xpyriment","legacy","legacy","0","congruent","uniform","1","undefined","1","s","0","0","0","17","17","17","17","0","17","0","NA","0","0","0","17","17","17","NA","09/08/18 21:07:28","1500","The main experiment item","yes","Flankertest.osexp","C:\Users\Knitwitty\AppData\Roaming","no","mono","no","18","no","white","no","yes","768","legacy","17","17","C:/Users/Knitwitty/AppData/Roaming/KB-subject-1.csv","xpyriment","Jazzy James","3.1.9","0","s","NA","s","NA","NA","s","491","NA","20829","NA","NA","491","NA","NA","2","legacy","1024","2","48000","-16","experiment","SSSSS","1","odd","31598","NA","NA","80317","78457","80278","68613","10729","69116","NA","NA","10768","NA","NA","80434","80927","80433","NA","Flanker test","15","11469","18","yes","1024"
"84.2105263158","84.2105263158","629.210526316","629.210526316","black","no","xpyriment","legacy","legacy","0","incongruent","uniform","1","undefined","1","h","0","0","0","18","18","18","18","0","18","0","NA","0","0","0","18","18","18","NA","09/08/18 21:07:28","1500","The main experiment item","yes","Flankertest.osexp","C:\Users\Knitwitty\AppData\Roaming","no","mono","no","18","no","white","no","yes","768","legacy","18","18","C:/Users/Knitwitty/AppData/Roaming/KB-subject-1.csv","xpyriment","Jazzy James","3.1.9","0","h","NA","s","NA","NA","h","486","NA","20829","NA","NA","486","NA","NA","2","legacy","1024","2","48000","-16","experiment","SSHSS","1","odd","31598","NA","NA","82785","80949","82751","68613","10729","69116","NA","NA","10768","NA","NA","82903","83391","82902","NA","Flanker test","16","11955","19","yes","1024"
"85","85","625.25","625.25","black","no","xpyriment","legacy","legacy","0","incongruent","uniform","1","undefined","1","s","0","0","0","19","19","19","19","0","19","0","NA","0","0","0","19","19","19","NA","09/08/18 21:07:28","1500","The main experiment item","yes","Flankertest.osexp","C:\Users\Knitwitty\AppData\Roaming","no","mono","no","18","no","white","no","yes","768","legacy","19","19","C:/Users/Knitwitty/AppData/Roaming/KB-subject-1.csv","xpyriment","Jazzy James","3.1.9","0","s","NA","s","NA","NA","s","550","NA","20829","NA","NA","550","NA","NA","2","legacy","1024","2","48000","-16","experiment","HHSHH","1","odd","31598","NA","NA","85265","83414","85227","68613","10729","69116","NA","NA","10768","NA","NA","85382","85934","85381","NA","Flanker test","17","12505","20","yes","1024"
"85.7142857143","85.7142857143","617.714285714","617.714285714","black","no","xpyriment","legacy","legacy","0","congruent","uniform","1","undefined","1","s","0","0","0","20","20","20","20","0","20","0","NA","0","0","0","20","20","20","NA","09/08/18 21:07:28","1500","The main experiment item","yes","Flankertest.osexp","C:\Users\Knitwitty\AppData\Roaming","no","mono","no","18","no","white","no","yes","768","legacy","20","20","C:/Users/Knitwitty/AppData/Roaming/KB-subject-1.csv","xpyriment","Jazzy James","3.1.9","0","s","NA","s","NA","NA","s","467","NA","20829","NA","NA","467","NA","NA","2","legacy","1024","2","48000","-16","experiment","SSSSS","1","odd","31598","NA","NA","87803","85952","87767","68613","10729","69116","NA","NA","10768","NA","NA","87921","88390","87920","NA","Flanker test","18","12972","21","yes","1024"
"86.3636363636","86.3636363636","609.136363636","609.136363636","black","no","xpyriment","legacy","legacy","0","congruent","uniform","1","undefined","1","h","0","0","0","21","21","21","21","0","21","0","NA","0","0","0","21","21","21","NA","09/08/18 21:07:28","1500","The main experiment item","yes","Flankertest.osexp","C:\Users\Knitwitty\AppData\Roaming","no","mono","no","18","no","white","no","yes","768","legacy","21","21","C:/Users/Knitwitty/AppData/Roaming/KB-subject-1.csv","xpyriment","Jazzy James","3.1.9","0","h","NA","s","NA","NA","h","429","NA","20829","NA","NA","429","NA","NA","2","legacy","1024","2","48000","-16","experiment","HHHHH","1","odd","31598","NA","NA","90251","88413","90214","68613","10729","69116","NA","NA","10768","NA","NA","90368","90799","90368","NA","Flanker test","19","13401","22","yes","1024"
"86.9565217391","86.9565217391","603.260869565","603.260869565","black","no","xpyriment","legacy","legacy","0","incongruent","uniform","1","undefined","1","s","0","0","0","22","22","22","22","0","22","0","NA","0","0","0","22","22","22","NA","09/08/18 21:07:28","1500","The main experiment item","yes","Flankertest.osexp","C:\Users\Knitwitty\AppData\Roaming","no","mono","no","18","no","white","no","yes","768","legacy","22","22","C:/Users/Knitwitty/AppData/Roaming/KB-subject-1.csv","xpyriment","Jazzy James","3.1.9","0","s","NA","s","NA","NA","s","474","NA","20829","NA","NA","474","NA","NA","2","legacy","1024","2","48000","-16","experiment","HHSHH","1","odd","31598","NA","NA","92677","90823","92635","68613","10729","69116","NA","NA","10768","NA","NA","92795","93271","92795","NA","Flanker test","20","13875","23","yes","1024"
"87.5","87.5","596.708333333","596.708333333","black","no","xpyriment","legacy","legacy","0","incongruent","uniform","1","undefined","1","s","0","0","0","23","23","23","23","0","23","0","NA","0","0","0","23","23","23","NA","09/08/18 21:07:28","1500","The main experiment item","yes","Flankertest.osexp","C:\Users\Knitwitty\AppData\Roaming","no","mono","no","18","no","white","no","yes","768","legacy","23","23","C:/Users/Knitwitty/AppData/Roaming/KB-subject-1.csv","xpyriment","Jazzy James","3.1.9","0","s","NA","s","NA","NA","s","446","NA","20829","NA","NA","446","NA","NA","2","legacy","1024","2","48000","-16","experiment","HHSHH","1","odd","31598","NA","NA","95133","93293","95098","68613","10729","69116","NA","NA","10768","NA","NA","95254","95702","95253","NA","Flanker test","21","14321","24","yes","1024"
"88","88","591.24","591.24","black","no","xpyriment","legacy","legacy","0","incongruent","uniform","1","undefined","1","s","0","0","0","24","24","24","24","0","24","0","NA","0","0","0","24","24","24","NA","09/08/18 21:07:28","1500","The main experiment item","yes","Flankertest.osexp","C:\Users\Knitwitty\AppData\Roaming","no","mono","no","18","no","white","no","yes","768","legacy","24","24","C:/Users/Knitwitty/AppData/Roaming/KB-subject-1.csv","xpyriment","Jazzy James","3.1.9","0","s","NA","s","NA","NA","s","460","NA","20829","NA","NA","460","NA","NA","2","legacy","1024","2","48000","-16","experiment","HHSHH","1","odd","31598","NA","NA","97572","95738","97536","68613","10729","69116","NA","NA","10768","NA","NA","97689","98151","97689","NA","Flanker test","22","14781","25","yes","1024"
"88.4615384615","88.4615384615","583.307692308","583.307692308","black","no","xpyriment","legacy","legacy","0","incongruent","uniform","1","undefined","1","s","0","0","0","25","25","25","25","0","25","0","NA","0","0","0","25","25","25","NA","09/08/18 21:07:28","1500","The main experiment item","yes","Flankertest.osexp","C:\Users\Knitwitty\AppData\Roaming","no","mono","no","18","no","white","no","yes","768","legacy","25","25","C:/Users/Knitwitty/AppData/Roaming/KB-subject-1.csv","xpyriment","Jazzy James","3.1.9","0","s","NA","s","NA","NA","s","385","NA","20829","NA","NA","385","NA","NA","2","legacy","1024","2","48000","-16","experiment","HHSHH","1","odd","31598","NA","NA","100022","98167","99987","68613","10729","69116","NA","NA","10768","NA","NA","100139","100526","100138","NA","Flanker test","23","15166","26","yes","1024"
"88.8888888889","88.8888888889","575.259259259","575.259259259","black","no","xpyriment","legacy","legacy","0","congruent","uniform","1","undefined","1","s","0","0","0","26","26","26","26","0","26","0","NA","0","0","0","26","26","26","NA","09/08/18 21:07:28","1500","The main experiment item","yes","Flankertest.osexp","C:\Users\Knitwitty\AppData\Roaming","no","mono","no","18","no","white","no","yes","768","legacy","26","26","C:/Users/Knitwitty/AppData/Roaming/KB-subject-1.csv","xpyriment","Jazzy James","3.1.9","0","s","NA","s","NA","NA","s","366","NA","20829","NA","NA","366","NA","NA","2","legacy","1024","2","48000","-16","experiment","SSSSS","1","odd","31598","NA","NA","102394","100541","102356","68613","10729","69116","NA","NA","10768","NA","NA","102511","102879","102511","NA","Flanker test","24","15532","27","yes","1024"
"89.2857142857","89.2857142857","570.25","570.25","black","no","xpyriment","legacy","legacy","0","incongruent","uniform","1","undefined","1","s","0","0","0","27","27","27","27","0","27","0","NA","0","0","0","27","27","27","NA","09/08/18 21:07:28","1500","The main experiment item","yes","Flankertest.osexp","C:\Users\Knitwitty\AppData\Roaming","no","mono","no","18","no","white","no","yes","768","legacy","27","27","C:/Users/Knitwitty/AppData/Roaming/KB-subject-1.csv","xpyriment","Jazzy James","3.1.9","0","s","NA","s","NA","NA","s","435","NA","20829","NA","NA","435","NA","NA","2","legacy","1024","2","48000","-16","experiment","HHSHH","1","odd","31598","NA","NA","104741","102894","104704","68613","10729","69116","NA","NA","10768","NA","NA","104858","105295","104857","NA","Flanker test","25","15967","28","yes","1024"
"89.6551724138","89.6551724138","565.137931034","565.137931034","black","no","xpyriment","legacy","legacy","0","incongruent","uniform","1","undefined","1","s","0","0","0","28","28","28","28","0","28","0","NA","0","0","0","28","28","28","NA","09/08/18 21:07:28","1500","The main experiment item","yes","Flankertest.osexp","C:\Users\Knitwitty\AppData\Roaming","no","mono","no","18","no","white","no","yes","768","legacy","28","28","C:/Users/Knitwitty/AppData/Roaming/KB-subject-1.csv","xpyriment","Jazzy James","3.1.9","0","s","NA","s","NA","NA","s","422","NA","20829","NA","NA","422","NA","NA","2","legacy","1024","2","48000","-16","experiment","HHSHH","1","odd","31598","NA","NA","107193","105313","107152","68613","10729","69116","NA","NA","10768","NA","NA","107310","107735","107309","NA","Flanker test","26","16389","29","yes","1024"
"86.6666666667","86.6666666667","556.8","556.8","black","no","xpyriment","legacy","legacy","0","incongruent","uniform","0","undefined","0","h","0","0","0","29","29","29","29","0","29","0","NA","0","0","0","29","29","29","NA","09/08/18 21:07:28","1500","The main experiment item","yes","Flankertest.osexp","C:\Users\Knitwitty\AppData\Roaming","no","mono","no","18","no","white","no","yes","768","legacy","29","29","C:/Users/Knitwitty/AppData/Roaming/KB-subject-1.csv","xpyriment","Jazzy James","3.1.9","0","s","NA","s","NA","NA","s","315","NA","20829","NA","NA","315","NA","NA","2","legacy","1024","2","48000","-16","experiment","SSHSS","1","odd","31598","NA","NA","109596","107753","109561","68613","10729","69116","NA","NA","10768","NA","NA","109713","110031","109713","NA","Flanker test","26","16704","30","yes","1024"
"87.0967741935","87.0967741935","556.096774194","556.096774194","black","no","xpyriment","legacy","legacy","0","congruent","uniform","1","undefined","1","s","0","0","0","30","30","30","30","0","30","0","NA","0","0","0","30","30","30","NA","09/08/18 21:07:28","1500","The main experiment item","yes","Flankertest.osexp","C:\Users\Knitwitty\AppData\Roaming","no","mono","no","18","no","white","no","yes","768","legacy","30","30","C:/Users/Knitwitty/AppData/Roaming/KB-subject-1.csv","xpyriment","Jazzy James","3.1.9","0","s","NA","s","NA","NA","s","535","NA","20829","NA","NA","535","NA","NA","2","legacy","1024","2","48000","-16","experiment","SSSSS","1","odd","31598","NA","NA","112421","110564","112383","110058","10729","69116","NA","NA","10768","NA","NA","112541","113079","112540","NA","Flanker test","27","17239","31","yes","1024"
"87.5","87.5","550.4375","550.4375","black","no","xpyriment","legacy","legacy","0","congruent","uniform","1","undefined","1","s","0","0","0","31","31","31","31","0","31","0","NA","0","0","0","31","31","31","NA","09/08/18 21:07:28","1500","The main experiment item","yes","Flankertest.osexp","C:\Users\Knitwitty\AppData\Roaming","no","mono","no","18","no","white","no","yes","768","legacy","31","31","C:/Users/Knitwitty/AppData/Roaming/KB-subject-1.csv","xpyriment","Jazzy James","3.1.9","0","s","NA","s","NA","NA","s","375","NA","20829","NA","NA","375","NA","NA","2","legacy","1024","2","48000","-16","experiment","SSSSS","1","odd","31598","NA","NA","114977","113115","114931","110058","10729","69116","NA","NA","10768","NA","NA","115094","115472","115093","NA","Flanker test","28","17614","32","yes","1024"
"84.8484848485","84.8484848485","546.606060606","546.606060606","black","no","xpyriment","legacy","legacy","0","incongruent","uniform","0","undefined","0","h","0","0","0","32","32","32","32","0","32","0","NA","0","0","0","32","32","32","NA","09/08/18 21:07:28","1500","The main experiment item","yes","Flankertest.osexp","C:\Users\Knitwitty\AppData\Roaming","no","mono","no","18","no","white","no","yes","768","legacy","32","32","C:/Users/Knitwitty/AppData/Roaming/KB-subject-1.csv","xpyriment","Jazzy James","3.1.9","0","s","NA","s","NA","NA","s","424","NA","20829","NA","NA","424","NA","NA","2","legacy","1024","2","48000","-16","experiment","SSHSS","1","odd","31598","NA","NA","117335","115495","117300","110058","10729","69116","NA","NA","10768","NA","NA","117452","117879","117452","NA","Flanker test","28","18038","33","yes","1024"
"85.2941176471","85.2941176471","544.735294118","544.735294118","black","no","xpyriment","legacy","legacy","0","incongruent","uniform","1","undefined","1","s","0","0","0","33","33","33","33","0","33","0","NA","0","0","0","33","33","33","NA","09/08/18 21:07:28","1500","The main experiment item","yes","Flankertest.osexp","C:\Users\Knitwitty\AppData\Roaming","no","mono","no","18","no","white","no","yes","768","legacy","33","33","C:/Users/Knitwitty/AppData/Roaming/KB-subject-1.csv","xpyriment","Jazzy James","3.1.9","0","s","NA","s","NA","NA","s","483","NA","20829","NA","NA","483","NA","NA","2","legacy","1024","2","48000","-16","experiment","HHSHH","1","odd","31598","NA","NA","120245","118405","120209","117899","10729","69116","NA","NA","10768","NA","NA","120362","120847","120362","NA","Flanker test","29","18521","34","yes","1024"
"85.7142857143","85.7142857143","541.485714286","541.485714286","black","no","xpyriment","legacy","legacy","0","congruent","uniform","1","undefined","1","h","0","0","0","34","34","34","34","0","34","0","NA","0","0","0","34","34","34","NA","09/08/18 21:07:28","1500","The main experiment item","yes","Flankertest.osexp","C:\Users\Knitwitty\AppData\Roaming","no","mono","no","18","no","white","no","yes","768","legacy","34","34","C:/Users/Knitwitty/AppData/Roaming/KB-subject-1.csv","xpyriment","Jazzy James","3.1.9","0","h","NA","s","NA","NA","h","431","NA","20829","NA","NA","431","NA","NA","2","legacy","1024","2","48000","-16","experiment","HHHHH","1","odd","31598","NA","NA","122752","120871","122701","117899","10729","69116","NA","NA","10768","NA","NA","122869","123303","122868","NA","Flanker test","30","18952","35","yes","1024"
"86.1111111111","86.1111111111","540.888888889","540.888888889","black","no","xpyriment","legacy","legacy","0","incongruent","uniform","1","undefined","1","h","0","0","0","35","35","35","35","0","35","0","NA","0","0","0","35","35","35","NA","09/08/18 21:07:28","1500","The main experiment item","yes","Flankertest.osexp","C:\Users\Knitwitty\AppData\Roaming","no","mono","no","18","no","white","no","yes","768","legacy","35","35","C:/Users/Knitwitty/AppData/Roaming/KB-subject-1.csv","xpyriment","Jazzy James","3.1.9","0","h","NA","s","NA","NA","h","520","NA","20829","NA","NA","520","NA","NA","2","legacy","1024","2","48000","-16","experiment","SSHSS","1","odd","31598","NA","NA","125167","123321","125132","117899","10729","69116","NA","NA","10768","NA","NA","125284","125807","125284","NA","Flanker test","31","19472","36","yes","1024"
"86.4864864865","86.4864864865","536","536","black","no","xpyriment","legacy","legacy","0","incongruent","uniform","1","undefined","1","h","0","0","0","36","36","36","36","0","36","0","NA","0","0","0","36","36","36","NA","09/08/18 21:07:28","1500","The main experiment item","yes","Flankertest.osexp","C:\Users\Knitwitty\AppData\Roaming","no","mono","no","18","no","white","no","yes","768","legacy","36","36","C:/Users/Knitwitty/AppData/Roaming/KB-subject-1.csv","xpyriment","Jazzy James","3.1.9","0","h","NA","s","NA","NA","h","360","NA","20829","NA","NA","360","NA","NA","2","legacy","1024","2","48000","-16","experiment","SSHSS","1","odd","31598","NA","NA","127663","125826","127627","117899","10729","69116","NA","NA","10768","NA","NA","127780","128143","127780","NA","Flanker test","32","19832","37","yes","1024"
"86.8421052632","86.8421052632","534.289473684","534.289473684","black","no","xpyriment","legacy","legacy","0","congruent","uniform","1","undefined","1","s","0","0","0","37","37","37","37","0","37","0","NA","0","0","0","37","37","37","NA","09/08/18 21:07:28","1500","The main experiment item","yes","Flankertest.osexp","C:\Users\Knitwitty\AppData\Roaming","no","mono","no","18","no","white","no","yes","768","legacy","37","37","C:/Users/Knitwitty/AppData/Roaming/KB-subject-1.csv","xpyriment","Jazzy James","3.1.9","0","s","NA","s","NA","NA","s","471","NA","20829","NA","NA","471","NA","NA","2","legacy","1024","2","48000","-16","experiment","SSSSS","1","odd","31598","NA","NA","130015","128166","129981","117899","10729","69116","NA","NA","10768","NA","NA","130133","130607","130132","NA","Flanker test","33","20303","38","yes","1024"
"87.1794871795","87.1794871795","532.282051282","532.282051282","black","no","xpyriment","legacy","legacy","0","congruent","uniform","1","undefined","1","s","0","0","0","38","38","38","38","0","38","0","NA","0","0","0","38","38","38","NA","09/08/18 21:07:28","1500","The main experiment item","yes","Flankertest.osexp","C:\Users\Knitwitty\AppData\Roaming","no","mono","no","18","no","white","no","yes","768","legacy","38","38","C:/Users/Knitwitty/AppData/Roaming/KB-subject-1.csv","xpyriment","Jazzy James","3.1.9","0","s","NA","s","NA","NA","s","456","NA","20829","NA","NA","456","NA","NA","2","legacy","1024","2","48000","-16","experiment","SSSSS","1","odd","31598","NA","NA","132471","130626","132426","117899","10729","69116","NA","NA","10768","NA","NA","132588","133047","132587","NA","Flanker test","34","20759","39","yes","1024"
"87.5","87.5","533.4","533.4","black","no","xpyriment","legacy","legacy","0","incongruent","uniform","1","undefined","1","s","0","0","0","39","39","39","39","0","39","0","NA","0","0","0","39","39","39","NA","09/08/18 21:07:28","1500","The main experiment item","yes","Flankertest.osexp","C:\Users\Knitwitty\AppData\Roaming","no","mono","no","18","no","white","no","yes","768","legacy","39","39","C:/Users/Knitwitty/AppData/Roaming/KB-subject-1.csv","xpyriment","Jazzy James","3.1.9","0","s","NA","s","NA","NA","s","577","NA","20829","NA","NA","577","NA","NA","2","legacy","1024","2","48000","-16","experiment","HHSHH","1","odd","31598","NA","NA","134934","133071","134899","117899","10729","69116","NA","NA","10768","NA","NA","135051","135631","135051","NA","Flanker test","35","21336","40","yes","1024"
"87.8048780488","87.8048780488","535.926829268","535.926829268","black","no","xpyriment","legacy","legacy","0","incongruent","uniform","1","undefined","1","s","0","0","0","40","40","40","40","0","40","0","NA","0","0","0","40","40","40","NA","09/08/18 21:07:28","1500","The main experiment item","yes","Flankertest.osexp","C:\Users\Knitwitty\AppData\Roaming","no","mono","no","18","no","white","no","yes","768","legacy","40","40","C:/Users/Knitwitty/AppData/Roaming/KB-subject-1.csv","xpyriment","Jazzy James","3.1.9","0","s","NA","s","NA","NA","s","637","NA","20829","NA","NA","637","NA","NA","2","legacy","1024","2","48000","-16","experiment","HHSHH","1","odd","31598","NA","NA","137523","135659","137487","117899","10729","69116","NA","NA","10768","NA","NA","137640","138280","137639","NA","Flanker test","36","21973","41","yes","1024"
"88.0952380952","88.0952380952","538.142857143","538.142857143","black","no","xpyriment","legacy","legacy","0","congruent","uniform","1","undefined","1","s","0","0","0","41","41","41","41","0","41","0","NA","0","0","0","41","41","41","NA","09/08/18 21:07:28","1500","The main experiment item","yes","Flankertest.osexp","C:\Users\Knitwitty\AppData\Roaming","no","mono","no","18","no","white","no","yes","768","legacy","41","41","C:/Users/Knitwitty/AppData/Roaming/KB-subject-1.csv","xpyriment","Jazzy James","3.1.9","0","s","NA","s","NA","NA","s","629","NA","20829","NA","NA","629","NA","NA","2","legacy","1024","2","48000","-16","experiment","SSSSS","1","odd","31598","NA","NA","140154","138312","140120","117899","10729","69116","NA","NA","10768","NA","NA","140271","140903","140270","NA","Flanker test","37","22602","42","yes","1024"
"88.3720930233","88.3720930233","538.279069767","538.279069767","black","no","xpyriment","legacy","legacy","0","incongruent","uniform","1","undefined","1","h","0","0","0","42","42","42","42","0","42","0","NA","0","0","0","42","42","42","NA","09/08/18 21:07:28","1500","The main experiment item","yes","Flankertest.osexp","C:\Users\Knitwitty\AppData\Roaming","no","mono","no","18","no","white","no","yes","768","legacy","42","42","C:/Users/Knitwitty/AppData/Roaming/KB-subject-1.csv","xpyriment","Jazzy James","3.1.9","0","h","NA","s","NA","NA","h","544","NA","20829","NA","NA","544","NA","NA","2","legacy","1024","2","48000","-16","experiment","SSHSS","1","odd","31598","NA","NA","142774","140925","142736","117899","10729","69116","NA","NA","10768","NA","NA","142892","143439","142891","NA","Flanker test","38","23146","43","yes","1024"
"88.6363636364","88.6363636364","537.840909091","537.840909091","black","no","xpyriment","legacy","legacy","0","congruent","uniform","1","undefined","1","h","0","0","0","43","43","43","43","0","43","0","NA","0","0","0","43","43","43","NA","09/08/18 21:07:28","1500","The main experiment item","yes","Flankertest.osexp","C:\Users\Knitwitty\AppData\Roaming","no","mono","no","18","no","white","no","yes","768","legacy","43","43","C:/Users/Knitwitty/AppData/Roaming/KB-subject-1.csv","xpyriment","Jazzy James","3.1.9","0","h","NA","s","NA","NA","h","519","NA","20829","NA","NA","519","NA","NA","2","legacy","1024","2","48000","-16","experiment","HHHHH","1","odd","31598","NA","NA","145327","143458","145283","117899","10729","69116","NA","NA","10768","NA","NA","145445","145967","145445","NA","Flanker test","39","23665","44","yes","1024"
"88.8888888889","88.8888888889","540.133333333","540.133333333","black","no","xpyriment","legacy","legacy","0","congruent","uniform","1","undefined","1","h","0","0","0","44","44","44","44","0","44","0","NA","0","0","0","44","44","44","NA","09/08/18 21:07:28","1500","The main experiment item","yes","Flankertest.osexp","C:\Users\Knitwitty\AppData\Roaming","no","mono","no","18","no","white","no","yes","768","legacy","44","44","C:/Users/Knitwitty/AppData/Roaming/KB-subject-1.csv","xpyriment","Jazzy James","3.1.9","0","h","NA","s","NA","NA","h","641","NA","20829","NA","NA","641","NA","NA","2","legacy","1024","2","48000","-16","experiment","HHHHH","1","odd","31598","NA","NA","147838","145987","147804","117899","10729","69116","NA","NA","10768","NA","NA","147955","148599","147955","NA","Flanker test","40","24306","45","yes","1024"
"89.1304347826","89.1304347826","539.739130435","539.739130435","black","no","xpyriment","legacy","legacy","0","congruent","uniform","1","undefined","1","s","0","0","0","45","45","45","45","0","45","0","NA","0","0","0","45","45","45","NA","09/08/18 21:07:28","1500","The main experiment item","yes","Flankertest.osexp","C:\Users\Knitwitty\AppData\Roaming","no","mono","no","18","no","white","no","yes","768","legacy","45","45","C:/Users/Knitwitty/AppData/Roaming/KB-subject-1.csv","xpyriment","Jazzy James","3.1.9","0","s","NA","s","NA","NA","s","522","NA","20829","NA","NA","522","NA","NA","2","legacy","1024","2","48000","-16","experiment","SSSSS","1","odd","31598","NA","NA","150492","148617","150459","117899","10729","69116","NA","NA","10768","NA","NA","150610","151135","150609","NA","Flanker test","41","24828","46","yes","1024"
"89.3617021277","89.3617021277","538.638297872","538.638297872","black","no","xpyriment","legacy","legacy","0","congruent","uniform","1","undefined","1","h","0","0","0","46","46","46","46","0","46","0","NA","0","0","0","46","46","46","NA","09/08/18 21:07:28","1500","The main experiment item","yes","Flankertest.osexp","C:\Users\Knitwitty\AppData\Roaming","no","mono","no","18","no","white","no","yes","768","legacy","46","46","C:/Users/Knitwitty/AppData/Roaming/KB-subject-1.csv","xpyriment","Jazzy James","3.1.9","0","h","NA","s","NA","NA","h","488","NA","20829","NA","NA","488","NA","NA","2","legacy","1024","2","48000","-16","experiment","HHHHH","1","odd","31598","NA","NA","153007","151154","152973","117899","10729","69116","NA","NA","10768","NA","NA","153125","153616","153124","NA","Flanker test","42","25316","47","yes","1024"
"89.5833333333","89.5833333333","536.166666667","536.166666667","black","no","xpyriment","legacy","legacy","0","congruent","uniform","1","undefined","1","h","0","0","0","47","47","47","47","0","47","0","NA","0","0","0","47","47","47","NA","09/08/18 21:07:28","1500","The main experiment item","yes","Flankertest.osexp","C:\Users\Knitwitty\AppData\Roaming","no","mono","no","18","no","white","no","yes","768","legacy","47","47","C:/Users/Knitwitty/AppData/Roaming/KB-subject-1.csv","xpyriment","Jazzy James","3.1.9","0","h","NA","s","NA","NA","h","420","NA","20829","NA","NA","420","NA","NA","2","legacy","1024","2","48000","-16","experiment","HHHHH","1","odd","31598","NA","NA","155475","153640","155441","117899","10729","69116","NA","NA","10768","NA","NA","155593","156016","155592","NA","Flanker test","43","25736","48","yes","1024"
"89.7959183673","89.7959183673","532.897959184","532.897959184","black","no","xpyriment","legacy","legacy","0","congruent","uniform","1","undefined","1","h","0","0","0","48","48","48","48","0","48","0","NA","0","0","0","48","48","48","NA","09/08/18 21:07:28","1500","The main experiment item","yes","Flankertest.osexp","C:\Users\Knitwitty\AppData\Roaming","no","mono","no","18","no","white","no","yes","768","legacy","48","48","C:/Users/Knitwitty/AppData/Roaming/KB-subject-1.csv","xpyriment","Jazzy James","3.1.9","0","h","NA","s","NA","NA","h","376","NA","20829","NA","NA","376","NA","NA","2","legacy","1024","2","48000","-16","experiment","HHHHH","1","odd","31598","NA","NA","157871","156035","157836","117899","10729","69116","NA","NA","10768","NA","NA","157988","158368","157987","NA","Flanker test","44","26112","49","yes","1024"
"90","90","532.66","532.66","black","no","xpyriment","legacy","legacy","0","congruent","uniform","1","undefined","1","s","0","0","0","49","49","49","49","0","49","0","NA","0","0","0","49","49","49","NA","09/08/18 21:07:28","1500","The main experiment item","yes","Flankertest.osexp","C:\Users\Knitwitty\AppData\Roaming","no","mono","no","18","no","white","no","yes","768","legacy","49","49","C:/Users/Knitwitty/AppData/Roaming/KB-subject-1.csv","xpyriment","Jazzy James","3.1.9","0","s","NA","s","NA","NA","s","521","NA","20829","NA","NA","521","NA","NA","2","legacy","1024","2","48000","-16","experiment","SSSSS","1","odd","31598","NA","NA","160230","158391","160197","117899","10729","69116","NA","NA","10768","NA","NA","160348","160872","160347","NA","Flanker test","45","26633","50","yes","1024"
"90.1960784314","90.1960784314","530.509803922","530.509803922","black","no","xpyriment","legacy","legacy","0","congruent","uniform","1","undefined","1","h","0","0","0","50","50","50","50","0","50","0","NA","0","0","0","50","50","50","NA","09/08/18 21:07:28","1500","The main experiment item","yes","Flankertest.osexp","C:\Users\Knitwitty\AppData\Roaming","no","mono","no","18","no","white","no","yes","768","legacy","50","50","C:/Users/Knitwitty/AppData/Roaming/KB-subject-1.csv","xpyriment","Jazzy James","3.1.9","0","h","NA","s","NA","NA","h","423","NA","20829","NA","NA","423","NA","NA","2","legacy","1024","2","48000","-16","experiment","HHHHH","1","odd","31598","NA","NA","162728","160890","162694","117899","10729","69116","NA","NA","10768","NA","NA","162845","163271","162844","NA","Flanker test","46","27056","51","yes","1024"
"90.3846153846","90.3846153846","531.807692308","531.807692308","black","no","xpyriment","legacy","legacy","0","incongruent","uniform","1","undefined","1","s","0","0","0","51","51","51","51","0","51","0","NA","0","0","0","51","51","51","NA","09/08/18 21:07:28","1500","The main experiment item","yes","Flankertest.osexp","C:\Users\Knitwitty\AppData\Roaming","no","mono","no","18","no","white","no","yes","768","legacy","51","51","C:/Users/Knitwitty/AppData/Roaming/KB-subject-1.csv","xpyriment","Jazzy James","3.1.9","0","s","NA","s","NA","NA","s","598","NA","20829","NA","NA","598","NA","NA","2","legacy","1024","2","48000","-16","experiment","HHSHH","1","odd","31598","NA","NA","165136","163294","165103","117899","10729","69116","NA","NA","10768","NA","NA","165255","165856","165255","NA","Flanker test","47","27654","52","yes","1024"
"90.5660377358","90.5660377358","530.924528302","530.924528302","black","no","xpyriment","legacy","legacy","0","congruent","uniform","1","undefined","1","s","0","0","0","52","52","52","52","0","52","0","NA","0","0","0","52","52","52","NA","09/08/18 21:07:28","1500","The main experiment item","yes","Flankertest.osexp","C:\Users\Knitwitty\AppData\Roaming","no","mono","no","18","no","white","no","yes","768","legacy","52","52","C:/Users/Knitwitty/AppData/Roaming/KB-subject-1.csv","xpyriment","Jazzy James","3.1.9","0","s","NA","s","NA","NA","s","485","NA","20829","NA","NA","485","NA","NA","2","legacy","1024","2","48000","-16","experiment","SSSSS","1","odd","31598","NA","NA","167689","165880","167655","117899","10729","69116","NA","NA","10768","NA","NA","167807","168296","167807","NA","Flanker test","48","28139","53","yes","1024"
"90.7407407407","90.7407407407","534.296296296","534.296296296","black","no","xpyriment","legacy","legacy","0","incongruent","uniform","1","undefined","1","s","0","0","0","53","53","53","53","0","53","0","NA","0","0","0","53","53","53","NA","09/08/18 21:07:28","1500","The main experiment item","yes","Flankertest.osexp","C:\Users\Knitwitty\AppData\Roaming","no","mono","no","18","no","white","no","yes","768","legacy","53","53","C:/Users/Knitwitty/AppData/Roaming/KB-subject-1.csv","xpyriment","Jazzy James","3.1.9","0","s","NA","s","NA","NA","s","713","NA","20829","NA","NA","713","NA","NA","2","legacy","1024","2","48000","-16","experiment","HHSHH","1","odd","31598","NA","NA","170158","168319","170124","117899","10729","69116","NA","NA","10768","NA","NA","170275","170992","170275","NA","Flanker test","49","28852","54","yes","1024"
"90.9090909091","90.9090909091","532.127272727","532.127272727","black","no","xpyriment","legacy","legacy","0","congruent","uniform","1","undefined","1","h","0","0","0","54","54","54","54","0","54","0","NA","0","0","0","54","54","54","NA","09/08/18 21:07:28","1500","The main experiment item","yes","Flankertest.osexp","C:\Users\Knitwitty\AppData\Roaming","no","mono","no","18","no","white","no","yes","768","legacy","54","54","C:/Users/Knitwitty/AppData/Roaming/KB-subject-1.csv","xpyriment","Jazzy James","3.1.9","0","h","NA","s","NA","NA","h","415","NA","20829","NA","NA","415","NA","NA","2","legacy","1024","2","48000","-16","experiment","HHHHH","1","odd","31598","NA","NA","172856","171017","172819","117899","10729","69116","NA","NA","10768","NA","NA","172973","173392","172972","NA","Flanker test","50","29267","55","yes","1024"
"91.0714285714","91.0714285714","532","532","black","no","xpyriment","legacy","legacy","0","congruent","uniform","1","undefined","1","h","0","0","0","55","55","55","55","0","55","0","NA","0","0","0","55","55","55","NA","09/08/18 21:07:28","1500","The main experiment item","yes","Flankertest.osexp","C:\Users\Knitwitty\AppData\Roaming","no","mono","no","18","no","white","no","yes","768","legacy","55","55","C:/Users/Knitwitty/AppData/Roaming/KB-subject-1.csv","xpyriment","Jazzy James","3.1.9","0","h","NA","s","NA","NA","h","525","NA","20829","NA","NA","525","NA","NA","2","legacy","1024","2","48000","-16","experiment","HHHHH","1","odd","31598","NA","NA","175259","173411","175223","117899","10729","69116","NA","NA","10768","NA","NA","175376","175904","175376","NA","Flanker test","51","29792","56","yes","1024"
"91.2280701754","91.2280701754","529.280701754","529.280701754","black","no","xpyriment","legacy","legacy","0","congruent","uniform","1","undefined","1","s","0","0","0","56","56","56","56","0","56","0","NA","0","0","0","56","56","56","NA","09/08/18 21:07:28","1500","The main experiment item","yes","Flankertest.osexp","C:\Users\Knitwitty\AppData\Roaming","no","mono","no","18","no","white","no","yes","768","legacy","56","56","C:/Users/Knitwitty/AppData/Roaming/KB-subject-1.csv","xpyriment","Jazzy James","3.1.9","0","s","NA","s","NA","NA","s","377","NA","20829","NA","NA","377","NA","NA","2","legacy","1024","2","48000","-16","experiment","SSSSS","1","odd","31598","NA","NA","177758","175927","177723","117899","10729","69116","NA","NA","10768","NA","NA","177875","178256","177875","NA","Flanker test","52","30169","57","yes","1024"
"91.3793103448","91.3793103448","528.275862069","528.275862069","black","no","xpyriment","legacy","legacy","0","congruent","uniform","1","undefined","1","s","0","0","0","57","57","57","57","0","57","0","NA","0","0","0","57","57","57","NA","09/08/18 21:07:28","1500","The main experiment item","yes","Flankertest.osexp","C:\Users\Knitwitty\AppData\Roaming","no","mono","no","18","no","white","no","yes","768","legacy","57","57","C:/Users/Knitwitty/AppData/Roaming/KB-subject-1.csv","xpyriment","Jazzy James","3.1.9","0","s","NA","s","NA","NA","s","471","NA","20829","NA","NA","471","NA","NA","2","legacy","1024","2","48000","-16","experiment","SSSSS","1","odd","31598","NA","NA","180128","178275","180086","117899","10729","69116","NA","NA","10768","NA","NA","180245","180721","180244","NA","Flanker test","53","30640","58","yes","1024"
"91.5254237288","91.5254237288","527.322033898","527.322033898","black","no","xpyriment","legacy","legacy","0","congruent","uniform","1","undefined","1","s","0","0","0","58","58","58","58","0","58","0","NA","0","0","0","58","58","58","NA","09/08/18 21:07:28","1500","The main experiment item","yes","Flankertest.osexp","C:\Users\Knitwitty\AppData\Roaming","no","mono","no","18","no","white","no","yes","768","legacy","58","58","C:/Users/Knitwitty/AppData/Roaming/KB-subject-1.csv","xpyriment","Jazzy James","3.1.9","0","s","NA","s","NA","NA","s","472","NA","20829","NA","NA","472","NA","NA","2","legacy","1024","2","48000","-16","experiment","SSSSS","1","odd","31598","NA","NA","182631","180740","182585","117899","10729","69116","NA","NA","10768","NA","NA","182741","183216","182741","NA","Flanker test","54","31112","59","yes","1024"
"91.6666666667","91.6666666667","523.966666667","523.966666667","black","no","xpyriment","legacy","legacy","0","congruent","uniform","1","undefined","1","h","0","0","0","59","59","59","59","0","59","0","NA","0","0","0","59","59","59","NA","09/08/18 21:07:28","1500","The main experiment item","yes","Flankertest.osexp","C:\Users\Knitwitty\AppData\Roaming","no","mono","no","18","no","white","no","yes","768","legacy","59","59","C:/Users/Knitwitty/AppData/Roaming/KB-subject-1.csv","xpyriment","Jazzy James","3.1.9","0","h","NA","s","NA","NA","h","326","NA","20829","NA","NA","326","NA","NA","2","legacy","1024","2","48000","-16","experiment","HHHHH","1","odd","31598","NA","NA","185080","183234","185046","117899","10729","69116","NA","NA","10768","NA","NA","185198","185528","185197","NA","Flanker test","55","31438","60","yes","1024"
"91.8032786885","91.8032786885","524.049180328","524.049180328","black","no","xpyriment","legacy","legacy","0","incongruent","uniform","1","undefined","1","s","0","0","0","60","60","60","60","0","60","0","NA","0","0","0","60","60","60","NA","09/08/18 21:07:28","1500","The main experiment item","yes","Flankertest.osexp","C:\Users\Knitwitty\AppData\Roaming","no","mono","no","18","no","white","no","yes","768","legacy","60","60","C:/Users/Knitwitty/AppData/Roaming/KB-subject-1.csv","xpyriment","Jazzy James","3.1.9","0","s","NA","s","NA","NA","s","529","NA","20829","NA","NA","529","NA","NA","2","legacy","1024","2","48000","-16","experiment","HHSHH","1","odd","31598","NA","NA","187390","185546","187354","117899","10729","69116","NA","NA","10768","NA","NA","187507","188040","187507","NA","Flanker test","56","31967","61","yes","1024"
"91.935483871","91.935483871","523.967741935","523.967741935","black","no","xpyriment","legacy","legacy","0","incongruent","uniform","1","undefined","1","h","0","0","0","61","61","61","61","0","61","0","NA","0","0","0","61","61","61","NA","09/08/18 21:07:28","1500","The main experiment item","yes","Flankertest.osexp","C:\Users\Knitwitty\AppData\Roaming","no","mono","no","18","no","white","no","yes","768","legacy","61","61","C:/Users/Knitwitty/AppData/Roaming/KB-subject-1.csv","xpyriment","Jazzy James","3.1.9","0","h","NA","s","NA","NA","h","519","NA","20829","NA","NA","519","NA","NA","2","legacy","1024","2","48000","-16","experiment","SSHSS","1","odd","31598","NA","NA","189936","188064","189901","117899","10729","69116","NA","NA","10768","NA","NA","190054","190577","190053","NA","Flanker test","57","32486","62","yes","1024"
"92.0634920635","92.0634920635","524.571428571","524.571428571","black","no","xpyriment","legacy","legacy","0","incongruent","uniform","1","undefined","1","h","0","0","0","62","62","62","62","0","62","0","NA","0","0","0","62","62","62","NA","09/08/18 21:07:28","1500","The main experiment item","yes","Flankertest.osexp","C:\Users\Knitwitty\AppData\Roaming","no","mono","no","18","no","white","no","yes","768","legacy","62","62","C:/Users/Knitwitty/AppData/Roaming/KB-subject-1.csv","xpyriment","Jazzy James","3.1.9","0","h","NA","s","NA","NA","h","562","NA","20829","NA","NA","562","NA","NA","2","legacy","1024","2","48000","-16","experiment","SSHSS","1","odd","31598","NA","NA","192444","190596","192396","117899","10729","69116","NA","NA","10768","NA","NA","192570","193136","192569","NA","Flanker test","58","33048","63","yes","1024"
"92.1875","92.1875","522.796875","522.796875","black","no","xpyriment","legacy","legacy","0","congruent","uniform","1","undefined","1","h","0","0","0","63","63","63","63","0","63","0","NA","0","0","0","63","63","63","NA","09/08/18 21:07:28","1500","The main experiment item","yes","Flankertest.osexp","C:\Users\Knitwitty\AppData\Roaming","no","mono","no","18","no","white","no","yes","768","legacy","63","63","C:/Users/Knitwitty/AppData/Roaming/KB-subject-1.csv","xpyriment","Jazzy James","3.1.9","0","h","NA","s","NA","NA","h","411","NA","20829","NA","NA","411","NA","NA","2","legacy","1024","2","48000","-16","experiment","HHHHH","1","odd","31598","NA","NA","195004","193159","194964","117899","10729","69116","NA","NA","10768","NA","NA","195121","195536","195120","NA","Flanker test","59","33459","64","yes","1024"
"92.3076923077","92.3076923077","521.953846154","521.953846154","black","no","xpyriment","legacy","legacy","0","incongruent","uniform","1","undefined","1","h","0","0","0","64","64","64","64","0","64","0","NA","0","0","0","64","64","64","NA","09/08/18 21:07:28","1500","The main experiment item","yes","Flankertest.osexp","C:\Users\Knitwitty\AppData\Roaming","no","mono","no","18","no","white","no","yes","768","legacy","64","64","C:/Users/Knitwitty/AppData/Roaming/KB-subject-1.csv","xpyriment","Jazzy James","3.1.9","0","h","NA","s","NA","NA","h","468","NA","20829","NA","NA","468","NA","NA","2","legacy","1024","2","48000","-16","experiment","SSHSS","1","odd","31598","NA","NA","197403","195560","197369","117899","10729","69116","NA","NA","10768","NA","NA","197520","197992","197520","NA","Flanker test","60","33927","65","yes","1024"
"92.4242424242","92.4242424242","521.575757576","521.575757576","black","no","xpyriment","legacy","legacy","0","incongruent","uniform","1","undefined","1","h","0","0","0","65","65","65","65","0","65","0","NA","0","0","0","65","65","65","NA","09/08/18 21:07:28","1500","The main experiment item","yes","Flankertest.osexp","C:\Users\Knitwitty\AppData\Roaming","no","mono","no","18","no","white","no","yes","768","legacy","65","65","C:/Users/Knitwitty/AppData/Roaming/KB-subject-1.csv","xpyriment","Jazzy James","3.1.9","0","h","NA","s","NA","NA","h","497","NA","20829","NA","NA","497","NA","NA","2","legacy","1024","2","48000","-16","experiment","SSHSS","1","odd","31598","NA","NA","199894","198041","199861","117899","10729","69116","NA","NA","10768","NA","NA","200011","200512","200011","NA","Flanker test","61","34424","66","yes","1024"
"92.5373134328","92.5373134328","522.805970149","522.805970149","black","no","xpyriment","legacy","legacy","0","incongruent","uniform","1","undefined","1","s","0","0","0","66","66","66","66","0","66","0","NA","0","0","0","66","66","66","NA","09/08/18 21:07:28","1500","The main experiment item","yes","Flankertest.osexp","C:\Users\Knitwitty\AppData\Roaming","no","mono","no","18","no","white","no","yes","768","legacy","66","66","C:/Users/Knitwitty/AppData/Roaming/KB-subject-1.csv","xpyriment","Jazzy James","3.1.9","0","s","NA","s","NA","NA","s","604","NA","20829","NA","NA","604","NA","NA","2","legacy","1024","2","48000","-16","experiment","HHSHH","1","odd","31598","NA","NA","202380","200532","202338","117899","10729","69116","NA","NA","10768","NA","NA","202497","203105","202496","NA","Flanker test","62","35028","67","yes","1024"
"92.6470588235","92.6470588235","521.897058824","521.897058824","black","no","xpyriment","legacy","legacy","0","congruent","uniform","1","undefined","1","h","0","0","0","67","67","67","67","0","67","0","NA","0","0","0","67","67","67","NA","09/08/18 21:07:28","1500","The main experiment item","yes","Flankertest.osexp","C:\Users\Knitwitty\AppData\Roaming","no","mono","no","18","no","white","no","yes","768","legacy","67","67","C:/Users/Knitwitty/AppData/Roaming/KB-subject-1.csv","xpyriment","Jazzy James","3.1.9","0","h","NA","s","NA","NA","h","461","NA","20829","NA","NA","461","NA","NA","2","legacy","1024","2","48000","-16","experiment","HHHHH","1","odd","31598","NA","NA","204979","203127","204932","117899","10729","69116","NA","NA","10768","NA","NA","205096","205561","205095","NA","Flanker test","63","35489","68","yes","1024"
"92.7536231884","92.7536231884","520.463768116","520.463768116","black","no","xpyriment","legacy","legacy","0","congruent","uniform","1","undefined","1","h","0","0","0","68","68","68","68","0","68","0","NA","0","0","0","68","68","68","NA","09/08/18 21:07:28","1500","The main experiment item","yes","Flankertest.osexp","C:\Users\Knitwitty\AppData\Roaming","no","mono","no","18","no","white","no","yes","768","legacy","68","68","C:/Users/Knitwitty/AppData/Roaming/KB-subject-1.csv","xpyriment","Jazzy James","3.1.9","0","h","NA","s","NA","NA","h","423","NA","20829","NA","NA","423","NA","NA","2","legacy","1024","2","48000","-16","experiment","HHHHH","1","odd","31598","NA","NA","207464","205579","207427","117899","10729","69116","NA","NA","10768","NA","NA","207582","208009","207582","NA","Flanker test","64","35912","69","yes","1024"
"92.8571428571","92.8571428571","519.2","519.2","black","no","xpyriment","legacy","legacy","0","congruent","uniform","1","undefined","1","s","0","0","0","69","69","69","69","0","69","0","NA","0","0","0","69","69","69","NA","09/08/18 21:07:28","1500","The main experiment item","yes","Flankertest.osexp","C:\Users\Knitwitty\AppData\Roaming","no","mono","no","18","no","white","no","yes","768","legacy","69","69","C:/Users/Knitwitty/AppData/Roaming/KB-subject-1.csv","xpyriment","Jazzy James","3.1.9","0","s","NA","s","NA","NA","s","432","NA","20829","NA","NA","432","NA","NA","2","legacy","1024","2","48000","-16","experiment","SSSSS","1","odd","31598","NA","NA","209888","208032","209846","117899","10729","69116","NA","NA","10768","NA","NA","210005","210441","210004","NA","Flanker test","65","36344","70","yes","1024"
"92.9577464789","92.9577464789","519.126760563","519.126760563","black","no","xpyriment","legacy","legacy","0","incongruent","uniform","1","undefined","1","h","0","0","0","70","70","70","70","0","70","0","NA","0","0","0","70","70","70","NA","09/08/18 21:07:28","1500","The main experiment item","yes","Flankertest.osexp","C:\Users\Knitwitty\AppData\Roaming","no","mono","no","18","no","white","no","yes","768","legacy","70","70","C:/Users/Knitwitty/AppData/Roaming/KB-subject-1.csv","xpyriment","Jazzy James","3.1.9","0","h","NA","s","NA","NA","h","514","NA","20829","NA","NA","514","NA","NA","2","legacy","1024","2","48000","-16","experiment","SSHSS","1","odd","31598","NA","NA","212316","210464","212274","117899","10729","69116","NA","NA","10768","NA","NA","212434","212952","212434","NA","Flanker test","66","36858","71","yes","1024"
"93.0555555556","93.0555555556","519.444444444","519.444444444","black","no","xpyriment","legacy","legacy","0","incongruent","uniform","1","undefined","1","h","0","0","0","71","71","71","71","0","71","0","NA","0","0","0","71","71","71","NA","09/08/18 21:07:28","1500","The main experiment item","yes","Flankertest.osexp","C:\Users\Knitwitty\AppData\Roaming","no","mono","no","18","no","white","no","yes","768","legacy","71","71","C:/Users/Knitwitty/AppData/Roaming/KB-subject-1.csv","xpyriment","Jazzy James","3.1.9","0","h","NA","s","NA","NA","h","542","NA","20829","NA","NA","542","NA","NA","2","legacy","1024","2","48000","-16","experiment","SSHSS","1","odd","31598","NA","NA","214834","212978","214797","117899","10729","69116","NA","NA","10768","NA","NA","214951","215497","214951","NA","Flanker test","67","37400","72","yes","1024"
"93.1506849315","93.1506849315","517.287671233","517.287671233","black","no","xpyriment","legacy","legacy","0","congruent","uniform","1","undefined","1","s","0","0","0","72","72","72","72","0","72","0","NA","0","0","0","72","72","72","NA","09/08/18 21:07:28","1500","The main experiment item","yes","Flankertest.osexp","C:\Users\Knitwitty\AppData\Roaming","no","mono","no","18","no","white","no","yes","768","legacy","72","72","C:/Users/Knitwitty/AppData/Roaming/KB-subject-1.csv","xpyriment","Jazzy James","3.1.9","0","s","NA","s","NA","NA","s","362","NA","20829","NA","NA","362","NA","NA","2","legacy","1024","2","48000","-16","experiment","SSSSS","1","odd","31598","NA","NA","217357","215517","217323","117899","10729","69116","NA","NA","10768","NA","NA","217474","217840","217474","NA","Flanker test","68","37762","73","yes","1024"
"93.2432432432","93.2432432432","514.662162162","514.662162162","black","no","xpyriment","legacy","legacy","0","incongruent","uniform","1","undefined","1","h","0","0","0","73","73","73","73","0","73","0","NA","0","0","0","73","73","73","NA","09/08/18 21:07:28","1500","The main experiment item","yes","Flankertest.osexp","C:\Users\Knitwitty\AppData\Roaming","no","mono","no","18","no","white","no","yes","768","legacy","73","73","C:/Users/Knitwitty/AppData/Roaming/KB-subject-1.csv","xpyriment","Jazzy James","3.1.9","0","h","NA","s","NA","NA","h","323","NA","20829","NA","NA","323","NA","NA","2","legacy","1024","2","48000","-16","experiment","SSHSS","1","odd","31598","NA","NA","219674","217863","219639","117899","10729","69116","NA","NA","10768","NA","NA","219785","220112","219784","NA","Flanker test","69","38085","74","yes","1024"
"93.3333333333","93.3333333333","513.906666667","513.906666667","black","no","xpyriment","legacy","legacy","0","congruent","uniform","1","undefined","1","h","0","0","0","74","74","74","74","0","74","0","NA","0","0","0","74","74","74","NA","09/08/18 21:07:28","1500","The main experiment item","yes","Flankertest.osexp","C:\Users\Knitwitty\AppData\Roaming","no","mono","no","18","no","white","no","yes","768","legacy","74","74","C:/Users/Knitwitty/AppData/Roaming/KB-subject-1.csv","xpyriment","Jazzy James","3.1.9","0","h","NA","s","NA","NA","h","458","NA","20829","NA","NA","458","NA","NA","2","legacy","1024","2","48000","-16","experiment","HHHHH","1","odd","31598","NA","NA","221957","220151","221921","117899","10729","69116","NA","NA","10768","NA","NA","222066","222529","222066","NA","Flanker test","70","38543","75","yes","1024"
"93.4210526316","93.4210526316","511.973684211","511.973684211","black","no","xpyriment","legacy","legacy","0","incongruent","uniform","1","undefined","1","h","0","0","0","75","75","75","75","0","75","0","NA","0","0","0","75","75","75","NA","09/08/18 21:07:28","1500","The main experiment item","yes","Flankertest.osexp","C:\Users\Knitwitty\AppData\Roaming","no","mono","no","18","no","white","no","yes","768","legacy","75","75","C:/Users/Knitwitty/AppData/Roaming/KB-subject-1.csv","xpyriment","Jazzy James","3.1.9","0","h","NA","s","NA","NA","h","367","NA","20829","NA","NA","367","NA","NA","2","legacy","1024","2","48000","-16","experiment","SSHSS","1","odd","31598","NA","NA","224369","222553","224334","117899","10729","69116","NA","NA","10768","NA","NA","224486","224857","224485","NA","Flanker test","71","38910","76","yes","1024"
"93.5064935065","93.5064935065","510.064935065","510.064935065","black","no","xpyriment","legacy","legacy","0","congruent","uniform","1","undefined","1","s","0","0","0","76","76","76","76","0","76","0","NA","0","0","0","76","76","76","NA","09/08/18 21:07:28","1500","The main experiment item","yes","Flankertest.osexp","C:\Users\Knitwitty\AppData\Roaming","no","mono","no","18","no","white","no","yes","768","legacy","76","76","C:/Users/Knitwitty/AppData/Roaming/KB-subject-1.csv","xpyriment","Jazzy James","3.1.9","0","s","NA","s","NA","NA","s","365","NA","20829","NA","NA","365","NA","NA","2","legacy","1024","2","48000","-16","experiment","SSSSS","1","odd","31598","NA","NA","226763","224893","226721","117899","10729","69116","NA","NA","10768","NA","NA","226880","227250","226880","NA","Flanker test","72","39275","77","yes","1024"
"93.5897435897","93.5897435897","508.076923077","508.076923077","black","no","xpyriment","legacy","legacy","0","incongruent","uniform","1","undefined","1","h","0","0","0","77","77","77","77","0","77","0","NA","0","0","0","77","77","77","NA","09/08/18 21:07:28","1500","The main experiment item","yes","Flankertest.osexp","C:\Users\Knitwitty\AppData\Roaming","no","mono","no","18","no","white","no","yes","768","legacy","77","77","C:/Users/Knitwitty/AppData/Roaming/KB-subject-1.csv","xpyriment","Jazzy James","3.1.9","0","h","NA","s","NA","NA","h","355","NA","20829","NA","NA","355","NA","NA","2","legacy","1024","2","48000","-16","experiment","SSHSS","1","odd","31598","NA","NA","229156","227265","229105","117899","10729","69116","NA","NA","10768","NA","NA","229273","229633","229272","NA","Flanker test","73","39630","78","yes","1024"
"93.6708860759","93.6708860759","507.088607595","507.088607595","black","no","xpyriment","legacy","legacy","0","incongruent","uniform","1","undefined","1","h","0","0","0","78","78","78","78","0","78","0","NA","0","0","0","78","78","78","NA","09/08/18 21:07:28","1500","The main experiment item","yes","Flankertest.osexp","C:\Users\Knitwitty\AppData\Roaming","no","mono","no","18","no","white","no","yes","768","legacy","78","78","C:/Users/Knitwitty/AppData/Roaming/KB-subject-1.csv","xpyriment","Jazzy James","3.1.9","0","h","NA","s","NA","NA","h","430","NA","20829","NA","NA","430","NA","NA","2","legacy","1024","2","48000","-16","experiment","SSHSS","1","odd","31598","NA","NA","231496","229651","231455","117899","10729","69116","NA","NA","10768","NA","NA","231614","232048","231613","NA","Flanker test","74","40060","79","yes","1024"
"93.75","93.75","505.525","505.525","black","no","xpyriment","legacy","legacy","0","incongruent","uniform","1","undefined","1","h","0","0","0","79","79","79","79","0","79","0","NA","0","0","0","79","79","79","NA","09/08/18 21:07:28","1500","The main experiment item","yes","Flankertest.osexp","C:\Users\Knitwitty\AppData\Roaming","no","mono","no","18","no","white","no","yes","768","legacy","79","79","C:/Users/Knitwitty/AppData/Roaming/KB-subject-1.csv","xpyriment","Jazzy James","3.1.9","0","h","NA","s","NA","NA","h","382","NA","20829","NA","NA","382","NA","NA","2","legacy","1024","2","48000","-16","experiment","SSHSS","1","odd","31598","NA","NA","233920","232065","233881","117899","10729","69116","NA","NA","10768","NA","NA","234038","234424","234038","NA","Flanker test","75","40442","80","yes","1024"
"93.8271604938","93.8271604938","508.50617284","508.50617284","black","no","xpyriment","legacy","legacy","0","incongruent","uniform","1","undefined","1","s","0","0","0","80","80","80","80","0","80","0","NA","0","0","0","80","80","80","NA","09/08/18 21:07:28","600","The main experiment item","yes","Flankertest.osexp","C:\Users\Knitwitty\AppData\Roaming","no","mono","no","18","no","white","no","yes","768","legacy","0","79","C:/Users/Knitwitty/AppData/Roaming/KB-subject-1.csv","xpyriment","Jazzy James","3.1.9","0","s","NA","s","h","NA","s","747","NA","20829","10205","NA","747","NA","NA","2","legacy","1024","2","48000","-16","experiment","HHSHH","1","odd","31598","245745","NA","246558","234444","246524","117899","10729","69116","NA","NA","10768","235535","NA","246674","247425","246673","NA","Flanker test","76","41189","81","yes","1024"
"92.6829268293","92.6829268293","505.743902439","505.743902439","black","no","xpyriment","legacy","legacy","0","incongruent","uniform","0","undefined","0","h","0","0","0","81","81","81","81","0","81","0","NA","0","0","0","81","81","81","NA","09/08/18 21:07:28","600","The main experiment item","yes","Flankertest.osexp","C:\Users\Knitwitty\AppData\Roaming","no","mono","no","18","no","white","no","yes","768","legacy","1","79","C:/Users/Knitwitty/AppData/Roaming/KB-subject-1.csv","xpyriment","Jazzy James","3.1.9","0","s","NA","s","h","NA","s","282","NA","20829","10205","NA","282","NA","NA","2","legacy","1024","2","48000","-16","experiment","SSHSS","1","odd","31598","245745","NA","249804","247951","249769","117899","10729","247444","NA","NA","10768","235535","NA","249922","250209","249922","NA","Flanker test","76","41471","82","yes","1024"
"92.7710843373","92.7710843373","503.240963855","503.240963855","black","no","xpyriment","legacy","legacy","0","congruent","uniform","1","undefined","1","h","0","0","0","82","82","82","82","0","82","0","NA","0","0","0","82","82","82","NA","09/08/18 21:07:28","600","The main experiment item","yes","Flankertest.osexp","C:\Users\Knitwitty\AppData\Roaming","no","mono","no","18","no","white","no","yes","768","legacy","2","79","C:/Users/Knitwitty/AppData/Roaming/KB-subject-1.csv","xpyriment","Jazzy James","3.1.9","0","h","NA","s","h","NA","h","298","NA","20829","10205","NA","298","NA","NA","2","legacy","1024","2","48000","-16","experiment","HHHHH","1","odd","31598","245745","NA","252598","250733","252560","250227","10729","247444","NA","NA","10768","235535","NA","252715","253018","252714","NA","Flanker test","77","41769","83","yes","1024"
"91.6666666667","91.6666666667","500.678571429","500.678571429","black","no","xpyriment","legacy","legacy","0","incongruent","uniform","0","undefined","0","s","0","0","0","83","83","83","83","0","83","0","NA","0","0","0","83","83","83","NA","09/08/18 21:07:28","600","The main experiment item","yes","Flankertest.osexp","C:\Users\Knitwitty\AppData\Roaming","no","mono","no","18","no","white","no","yes","768","legacy","3","79","C:/Users/Knitwitty/AppData/Roaming/KB-subject-1.csv","xpyriment","Jazzy James","3.1.9","0","h","NA","s","h","NA","h","288","NA","20829","10205","NA","288","NA","NA","2","legacy","1024","2","48000","-16","experiment","HHSHH","1","odd","31598","245745","NA","254894","253041","254848","250227","10729","247444","NA","NA","10768","235535","NA","255012","255305","255011","NA","Flanker test","77","42057","84","yes","1024"
"91.7647058824","91.7647058824","498.917647059","498.917647059","black","no","xpyriment","legacy","legacy","0","incongruent","uniform","1","undefined","1","h","0","0","0","84","84","84","84","0","84","0","NA","0","0","0","84","84","84","NA","09/08/18 21:07:28","600","The main experiment item","yes","Flankertest.osexp","C:\Users\Knitwitty\AppData\Roaming","no","mono","no","18","no","white","no","yes","768","legacy","4","79","C:/Users/Knitwitty/AppData/Roaming/KB-subject-1.csv","xpyriment","Jazzy James","3.1.9","0","h","NA","s","h","NA","h","351","NA","20829","10205","NA","351","NA","NA","2","legacy","1024","2","48000","-16","experiment","SSHSS","1","odd","31598","245745","NA","257704","255829","257666","255322","10729","247444","NA","NA","10768","235535","NA","257821","258177","257821","NA","Flanker test","78","42408","85","yes","1024"
"90.6976744186","90.6976744186","496.558139535","496.558139535","black","no","xpyriment","legacy","legacy","0","incongruent","uniform","0","undefined","0","h","0","0","0","85","85","85","85","0","85","0","NA","0","0","0","85","85","85","NA","09/08/18 21:07:28","600","The main experiment item","yes","Flankertest.osexp","C:\Users\Knitwitty\AppData\Roaming","no","mono","no","18","no","white","no","yes","768","legacy","5","79","C:/Users/Knitwitty/AppData/Roaming/KB-subject-1.csv","xpyriment","Jazzy James","3.1.9","0","s","NA","s","h","NA","s","296","NA","20829","10205","NA","296","NA","NA","2","legacy","1024","2","48000","-16","experiment","SSHSS","1","odd","31598","245745","NA","260111","258200","260059","255322","10729","247444","NA","NA","10768","235535","NA","260228","260529","260227","NA","Flanker test","78","42704","86","yes","1024"
"90.8045977011","90.8045977011","496.977011494","496.977011494","black","no","xpyriment","legacy","legacy","0","incongruent","uniform","1","undefined","1","s","0","0","0","86","86","86","86","0","86","0","NA","0","0","0","86","86","86","NA","09/08/18 21:07:28","600","The main experiment item","yes","Flankertest.osexp","C:\Users\Knitwitty\AppData\Roaming","no","mono","no","18","no","white","no","yes","768","legacy","6","79","C:/Users/Knitwitty/AppData/Roaming/KB-subject-1.csv","xpyriment","Jazzy James","3.1.9","0","s","NA","s","h","NA","s","533","NA","20829","10205","NA","533","NA","NA","2","legacy","1024","2","48000","-16","experiment","HHSHH","1","odd","31598","245745","NA","262907","261058","262864","260552","10729","247444","NA","NA","10768","235535","NA","263024","263562","263024","NA","Flanker test","79","43237","87","yes","1024"
"90.9090909091","90.9090909091","494.875","494.875","black","no","xpyriment","legacy","legacy","0","incongruent","uniform","1","undefined","1","h","0","0","0","87","87","87","87","0","87","0","NA","0","0","0","87","87","87","NA","09/08/18 21:07:28","600","The main experiment item","yes","Flankertest.osexp","C:\Users\Knitwitty\AppData\Roaming","no","mono","no","18","no","white","no","yes","768","legacy","7","79","C:/Users/Knitwitty/AppData/Roaming/KB-subject-1.csv","xpyriment","Jazzy James","3.1.9","0","h","NA","s","h","NA","h","312","NA","20829","10205","NA","312","NA","NA","2","legacy","1024","2","48000","-16","experiment","SSHSS","1","odd","31598","245745","NA","265470","263585","265432","260552","10729","247444","NA","NA","10768","235535","NA","265588","265905","265587","NA","Flanker test","80","43549","88","yes","1024"
"91.0112359551","91.0112359551","494.314606742","494.314606742","black","no","xpyriment","legacy","legacy","0","congruent","uniform","1","undefined","1","s","0","0","0","88","88","88","88","0","88","0","NA","0","0","0","88","88","88","NA","09/08/18 21:07:28","600","The main experiment item","yes","Flankertest.osexp","C:\Users\Knitwitty\AppData\Roaming","no","mono","no","18","no","white","no","yes","768","legacy","8","79","C:/Users/Knitwitty/AppData/Roaming/KB-subject-1.csv","xpyriment","Jazzy James","3.1.9","0","s","NA","s","h","NA","s","445","NA","20829","10205","NA","445","NA","NA","2","legacy","1024","2","48000","-16","experiment","SSSSS","1","odd","31598","245745","NA","267787","265923","267751","260552","10729","247444","NA","NA","10768","235535","NA","267904","268354","267903","NA","Flanker test","81","43994","89","yes","1024"
"91.1111111111","91.1111111111","492.355555556","492.355555556","black","no","xpyriment","legacy","legacy","0","congruent","uniform","1","undefined","1","h","0","0","0","89","89","89","89","0","89","0","NA","0","0","0","89","89","89","NA","09/08/18 21:07:28","600","The main experiment item","yes","Flankertest.osexp","C:\Users\Knitwitty\AppData\Roaming","no","mono","no","18","no","white","no","yes","768","legacy","9","79","C:/Users/Knitwitty/AppData/Roaming/KB-subject-1.csv","xpyriment","Jazzy James","3.1.9","0","h","NA","s","h","NA","h","318","NA","20829","10205","NA","318","NA","NA","2","legacy","1024","2","48000","-16","experiment","HHHHH","1","odd","31598","245745","NA","270249","268371","270187","260552","10729","247444","NA","NA","10768","235535","NA","270366","270689","270365","NA","Flanker test","82","44312","90","yes","1024"
"91.2087912088","91.2087912088","491.098901099","491.098901099","black","no","xpyriment","legacy","legacy","0","congruent","uniform","1","undefined","1","s","0","0","0","90","90","90","90","0","90","0","NA","0","0","0","90","90","90","NA","09/08/18 21:07:28","600","The main experiment item","yes","Flankertest.osexp","C:\Users\Knitwitty\AppData\Roaming","no","mono","no","18","no","white","no","yes","768","legacy","10","79","C:/Users/Knitwitty/AppData/Roaming/KB-subject-1.csv","xpyriment","Jazzy James","3.1.9","0","s","NA","s","h","NA","s","378","NA","20829","10205","NA","378","NA","NA","2","legacy","1024","2","48000","-16","experiment","SSSSS","1","odd","31598","245745","NA","272550","270707","272513","260552","10729","247444","NA","NA","10768","235535","NA","272667","273049","272667","NA","Flanker test","83","44690","91","yes","1024"
"91.3043478261","91.3043478261","489.173913043","489.173913043","black","no","xpyriment","legacy","legacy","0","incongruent","uniform","1","undefined","1","h","0","0","0","91","91","91","91","0","91","0","NA","0","0","0","91","91","91","NA","09/08/18 21:07:28","600","The main experiment item","yes","Flankertest.osexp","C:\Users\Knitwitty\AppData\Roaming","no","mono","no","18","no","white","no","yes","768","legacy","11","79","C:/Users/Knitwitty/AppData/Roaming/KB-subject-1.csv","xpyriment","Jazzy James","3.1.9","0","h","NA","s","h","NA","h","314","NA","20829","10205","NA","314","NA","NA","2","legacy","1024","2","48000","-16","experiment","SSHSS","1","odd","31598","245745","NA","274909","273068","274872","260552","10729","247444","NA","NA","10768","235535","NA","275026","275345","275025","NA","Flanker test","84","45004","92","yes","1024"
"91.3978494624","91.3978494624","488.344086022","488.344086022","black","no","xpyriment","legacy","legacy","0","congruent","uniform","1","undefined","1","h","0","0","0","92","92","92","92","0","92","0","NA","0","0","0","92","92","92","NA","09/08/18 21:07:28","600","The main experiment item","yes","Flankertest.osexp","C:\Users\Knitwitty\AppData\Roaming","no","mono","no","18","no","white","no","yes","768","legacy","12","79","C:/Users/Knitwitty/AppData/Roaming/KB-subject-1.csv","xpyriment","Jazzy James","3.1.9","0","h","NA","s","h","NA","h","412","NA","20829","10205","NA","412","NA","NA","2","legacy","1024","2","48000","-16","experiment","HHHHH","1","odd","31598","245745","NA","277211","275363","277170","260552","10729","247444","NA","NA","10768","235535","NA","277328","277746","277327","NA","Flanker test","85","45416","93","yes","1024"
"91.4893617021","91.4893617021","486.946808511","486.946808511","black","no","xpyriment","legacy","legacy","0","congruent","uniform","1","undefined","1","s","0","0","0","93","93","93","93","0","93","0","NA","0","0","0","93","93","93","NA","09/08/18 21:07:28","600","The main experiment item","yes","Flankertest.osexp","C:\Users\Knitwitty\AppData\Roaming","no","mono","no","18","no","white","no","yes","768","legacy","13","79","C:/Users/Knitwitty/AppData/Roaming/KB-subject-1.csv","xpyriment","Jazzy James","3.1.9","0","s","NA","s","h","NA","s","357","NA","20829","10205","NA","357","NA","NA","2","legacy","1024","2","48000","-16","experiment","SSSSS","1","odd","31598","245745","NA","279658","277764","279618","260552","10729","247444","NA","NA","10768","235535","NA","279775","280137","279775","NA","Flanker test","86","45773","94","yes","1024"
"90.5263157895","90.5263157895","485.694736842","485.694736842","black","no","xpyriment","legacy","legacy","0","congruent","uniform","0","undefined","0","s","0","0","0","94","94","94","94","0","94","0","NA","0","0","0","94","94","94","NA","09/08/18 21:07:28","600","The main experiment item","yes","Flankertest.osexp","C:\Users\Knitwitty\AppData\Roaming","no","mono","no","18","no","white","no","yes","768","legacy","14","79","C:/Users/Knitwitty/AppData/Roaming/KB-subject-1.csv","xpyriment","Jazzy James","3.1.9","0","h","NA","s","h","NA","h","368","NA","20829","10205","NA","368","NA","NA","2","legacy","1024","2","48000","-16","experiment","SSSSS","1","odd","31598","245745","NA","282000","280161","281965","260552","10729","247444","NA","NA","10768","235535","NA","282117","282490","282117","NA","Flanker test","86","46141","95","yes","1024"
"90.625","90.625","484.520833333","484.520833333","black","no","xpyriment","legacy","legacy","0","incongruent","uniform","1","undefined","1","h","0","0","0","95","95","95","95","0","95","0","NA","0","0","0","95","95","95","NA","09/08/18 21:07:28","600","The main experiment item","yes","Flankertest.osexp","C:\Users\Knitwitty\AppData\Roaming","no","mono","no","18","no","white","no","yes","768","legacy","15","79","C:/Users/Knitwitty/AppData/Roaming/KB-subject-1.csv","xpyriment","Jazzy James","3.1.9","0","h","NA","s","h","NA","h","373","NA","20829","10205","NA","373","NA","NA","2","legacy","1024","2","48000","-16","experiment","SSHSS","1","odd","31598","245745","NA","284857","283012","284821","282506","10729","247444","NA","NA","10768","235535","NA","284975","285353","284975","NA","Flanker test","87","46514","96","yes","1024"
"90.7216494845","90.7216494845","486.587628866","486.587628866","black","no","xpyriment","legacy","legacy","0","incongruent","uniform","1","undefined","1","s","0","0","0","96","96","96","96","0","96","0","NA","0","0","0","96","96","96","NA","09/08/18 21:07:28","600","The main experiment item","yes","Flankertest.osexp","C:\Users\Knitwitty\AppData\Roaming","no","mono","no","18","no","white","no","yes","768","legacy","16","79","C:/Users/Knitwitty/AppData/Roaming/KB-subject-1.csv","xpyriment","Jazzy James","3.1.9","0","s","NA","s","h","NA","s","685","NA","20829","10205","NA","685","NA","NA","2","legacy","1024","2","48000","-16","experiment","HHSHH","1","odd","31598","245745","NA","287258","285412","287223","282506","10729","247444","NA","NA","10768","235535","NA","287375","288066","287374","NA","Flanker test","88","47199","97","yes","1024"
"89.7959183673","89.7959183673","485.020408163","485.020408163","black","no","xpyriment","legacy","legacy","0","incongruent","uniform","0","undefined","0","h","0","0","0","97","97","97","97","0","97","0","NA","0","0","0","97","97","97","NA","09/08/18 21:07:28","600","The main experiment item","yes","Flankertest.osexp","C:\Users\Knitwitty\AppData\Roaming","no","mono","no","18","no","white","no","yes","768","legacy","17","79","C:/Users/Knitwitty/AppData/Roaming/KB-subject-1.csv","xpyriment","Jazzy James","3.1.9","0","s","NA","s","h","NA","s","333","NA","20829","10205","NA","333","NA","NA","2","legacy","1024","2","48000","-16","experiment","SSHSS","1","odd","31598","245745","NA","290473","288590","290427","282506","10729","288085","NA","NA","10768","235535","NA","290591","290930","290590","NA","Flanker test","88","47532","98","yes","1024"
"89.898989899","89.898989899","483.747474747","483.747474747","black","no","xpyriment","legacy","legacy","0","congruent","uniform","1","undefined","1","h","0","0","0","98","98","98","98","0","98","0","NA","0","0","0","98","98","98","NA","09/08/18 21:07:28","600","The main experiment item","yes","Flankertest.osexp","C:\Users\Knitwitty\AppData\Roaming","no","mono","no","18","no","white","no","yes","768","legacy","18","79","C:/Users/Knitwitty/AppData/Roaming/KB-subject-1.csv","xpyriment","Jazzy James","3.1.9","0","h","NA","s","h","NA","h","359","NA","20829","10205","NA","359","NA","NA","2","legacy","1024","2","48000","-16","experiment","HHHHH","1","odd","31598","245745","NA","293288","291453","293253","290947","10729","288085","NA","NA","10768","235535","NA","293405","293769","293405","NA","Flanker test","89","47891","99","yes","1024"
"90","90","482.63","482.63","black","no","xpyriment","legacy","legacy","0","incongruent","uniform","1","undefined","1","h","0","0","0","99","99","99","99","0","99","0","NA","0","0","0","99","99","99","NA","09/08/18 21:07:28","600","The main experiment item","yes","Flankertest.osexp","C:\Users\Knitwitty\AppData\Roaming","no","mono","no","18","no","white","no","yes","768","legacy","19","79","C:/Users/Knitwitty/AppData/Roaming/KB-subject-1.csv","xpyriment","Jazzy James","3.1.9","0","h","NA","s","h","NA","h","372","NA","20829","10205","NA","372","NA","NA","2","legacy","1024","2","48000","-16","experiment","SSHSS","1","odd","31598","245745","NA","295683","293812","295646","290947","10729","288085","NA","NA","10768","235535","NA","295801","296178","295800","NA","Flanker test","90","48263","100","yes","1024"
"90.099009901","90.099009901","482.930693069","482.930693069","black","no","xpyriment","legacy","legacy","0","congruent","uniform","1","undefined","1","s","0","0","0","100","100","100","100","0","100","0","NA","0","0","0","100","100","100","NA","09/08/18 21:07:28","600","The main experiment item","yes","Flankertest.osexp","C:\Users\Knitwitty\AppData\Roaming","no","mono","no","18","no","white","no","yes","768","legacy","20","79","C:/Users/Knitwitty/AppData/Roaming/KB-subject-1.csv","xpyriment","Jazzy James","3.1.9","0","s","NA","s","h","NA","s","513","NA","20829","10205","NA","513","NA","NA","2","legacy","1024","2","48000","-16","experiment","SSSSS","1","odd","31598","245745","NA","298031","296195","297995","290947","10729","288085","NA","NA","10768","235535","NA","298148","298666","298147","NA","Flanker test","91","48776","101","yes","1024"
"90.1960784314","90.1960784314","481.333333333","481.333333333","black","no","xpyriment","legacy","legacy","0","incongruent","uniform","1","undefined","1","h","0","0","0","101","101","101","101","0","101","0","NA","0","0","0","101","101","101","NA","09/08/18 21:07:28","600","The main experiment item","yes","Flankertest.osexp","C:\Users\Knitwitty\AppData\Roaming","no","mono","no","18","no","white","no","yes","768","legacy","21","79","C:/Users/Knitwitty/AppData/Roaming/KB-subject-1.csv","xpyriment","Jazzy James","3.1.9","0","h","NA","s","h","NA","h","320","NA","20829","10205","NA","320","NA","NA","2","legacy","1024","2","48000","-16","experiment","SSHSS","1","odd","31598","245745","NA","300519","298685","300480","290947","10729","288085","NA","NA","10768","235535","NA","300637","300962","300636","NA","Flanker test","92","49096","102","yes","1024"
"90.2912621359","90.2912621359","481.737864078","481.737864078","black","no","xpyriment","legacy","legacy","0","incongruent","uniform","1","undefined","1","s","0","0","0","102","102","102","102","0","102","0","NA","0","0","0","102","102","102","NA","09/08/18 21:07:28","600","The main experiment item","yes","Flankertest.osexp","C:\Users\Knitwitty\AppData\Roaming","no","mono","no","18","no","white","no","yes","768","legacy","22","79","C:/Users/Knitwitty/AppData/Roaming/KB-subject-1.csv","xpyriment","Jazzy James","3.1.9","0","s","NA","s","h","NA","s","523","NA","20829","10205","NA","523","NA","NA","2","legacy","1024","2","48000","-16","experiment","HHSHH","1","odd","31598","245745","NA","302828","300980","302792","290947","10729","288085","NA","NA","10768","235535","NA","302946","303475","302945","NA","Flanker test","93","49619","103","yes","1024"
"90.3846153846","90.3846153846","480.028846154","480.028846154","black","no","xpyriment","legacy","legacy","0","congruent","uniform","1","undefined","1","h","0","0","0","103","103","103","103","0","103","0","NA","0","0","0","103","103","103","NA","09/08/18 21:07:28","600","The main experiment item","yes","Flankertest.osexp","C:\Users\Knitwitty\AppData\Roaming","no","mono","no","18","no","white","no","yes","768","legacy","23","79","C:/Users/Knitwitty/AppData/Roaming/KB-subject-1.csv","xpyriment","Jazzy James","3.1.9","0","h","NA","s","h","NA","h","304","NA","20829","10205","NA","304","NA","NA","2","legacy","1024","2","48000","-16","experiment","HHHHH","1","odd","31598","245745","NA","305351","303494","305307","290947","10729","288085","NA","NA","10768","235535","NA","305469","305778","305468","NA","Flanker test","94","49923","104","yes","1024"
"90.4761904762","90.4761904762","480.352380952","480.352380952","black","no","xpyriment","legacy","legacy","0","incongruent","uniform","1","undefined","1","h","0","0","0","104","104","104","104","0","104","0","NA","0","0","0","104","104","104","NA","09/08/18 21:07:28","600","The main experiment item","yes","Flankertest.osexp","C:\Users\Knitwitty\AppData\Roaming","no","mono","no","18","no","white","no","yes","768","legacy","24","79","C:/Users/Knitwitty/AppData/Roaming/KB-subject-1.csv","xpyriment","Jazzy James","3.1.9","0","h","NA","s","h","NA","h","514","NA","20829","10205","NA","514","NA","NA","2","legacy","1024","2","48000","-16","experiment","SSHSS","1","odd","31598","245745","NA","307662","305801","307622","290947","10729","288085","NA","NA","10768","235535","NA","307779","308298","307779","NA","Flanker test","95","50437","105","yes","1024"
"90.5660377358","90.5660377358","480.952830189","480.952830189","black","no","xpyriment","legacy","legacy","0","incongruent","uniform","1","undefined","1","s","0","0","0","105","105","105","105","0","105","0","NA","0","0","0","105","105","105","NA","09/08/18 21:07:28","600","The main experiment item","yes","Flankertest.osexp","C:\Users\Knitwitty\AppData\Roaming","no","mono","no","18","no","white","no","yes","768","legacy","25","79","C:/Users/Knitwitty/AppData/Roaming/KB-subject-1.csv","xpyriment","Jazzy James","3.1.9","0","s","NA","s","h","NA","s","544","NA","20829","10205","NA","544","NA","NA","2","legacy","1024","2","48000","-16","experiment","HHSHH","1","odd","31598","245745","NA","310167","308316","310132","290947","10729","288085","NA","NA","10768","235535","NA","310285","310835","310284","NA","Flanker test","96","50981","106","yes","1024"
"90.6542056075","90.6542056075","481.635514019","481.635514019","black","no","xpyriment","legacy","legacy","0","congruent","uniform","1","undefined","1","s","0","0","0","106","106","106","106","0","106","0","NA","0","0","0","106","106","106","NA","09/08/18 21:07:28","600","The main experiment item","yes","Flankertest.osexp","C:\Users\Knitwitty\AppData\Roaming","no","mono","no","18","no","white","no","yes","768","legacy","26","79","C:/Users/Knitwitty/AppData/Roaming/KB-subject-1.csv","xpyriment","Jazzy James","3.1.9","0","s","NA","s","h","NA","s","554","NA","20829","10205","NA","554","NA","NA","2","legacy","1024","2","48000","-16","experiment","SSSSS","1","odd","31598","245745","NA","312725","310848","312684","290947","10729","288085","NA","NA","10768","235535","NA","312843","313403","312843","NA","Flanker test","97","51535","107","yes","1024"
"90.7407407407","90.7407407407","481.305555556","481.305555556","black","no","xpyriment","legacy","legacy","0","congruent","uniform","1","undefined","1","s","0","0","0","107","107","107","107","0","107","0","NA","0","0","0","107","107","107","NA","09/08/18 21:07:28","600","The main experiment item","yes","Flankertest.osexp","C:\Users\Knitwitty\AppData\Roaming","no","mono","no","18","no","white","no","yes","768","legacy","27","79","C:/Users/Knitwitty/AppData/Roaming/KB-subject-1.csv","xpyriment","Jazzy James","3.1.9","0","s","NA","s","h","NA","s","446","NA","20829","10205","NA","446","NA","NA","2","legacy","1024","2","48000","-16","experiment","SSSSS","1","odd","31598","245745","NA","315297","313426","315260","290947","10729","288085","NA","NA","10768","235535","NA","315414","315866","315413","NA","Flanker test","98","51981","108","yes","1024"
"89.9082568807","89.9082568807","480.486238532","480.486238532","black","no","xpyriment","legacy","legacy","0","incongruent","uniform","0","undefined","0","s","0","0","0","108","108","108","108","0","108","0","NA","0","0","0","108","108","108","NA","09/08/18 21:07:28","600","The main experiment item","yes","Flankertest.osexp","C:\Users\Knitwitty\AppData\Roaming","no","mono","no","18","no","white","no","yes","768","legacy","28","79","C:/Users/Knitwitty/AppData/Roaming/KB-subject-1.csv","xpyriment","Jazzy James","3.1.9","0","h","NA","s","h","NA","h","392","NA","20829","10205","NA","392","NA","NA","2","legacy","1024","2","48000","-16","experiment","HHSHH","1","odd","31598","245745","NA","317736","315884","317690","290947","10729","288085","NA","NA","10768","235535","NA","317853","318251","317852","NA","Flanker test","98","52373","109","yes","1024"
"90","90","481.718181818","481.718181818","black","no","xpyriment","legacy","legacy","0","incongruent","uniform","1","undefined","1","h","0","0","0","109","109","109","109","0","109","0","NA","0","0","0","109","109","109","NA","09/08/18 21:07:28","600","The main experiment item","yes","Flankertest.osexp","C:\Users\Knitwitty\AppData\Roaming","no","mono","no","18","no","white","no","yes","768","legacy","29","79","C:/Users/Knitwitty/AppData/Roaming/KB-subject-1.csv","xpyriment","Jazzy James","3.1.9","0","h","NA","s","h","NA","h","616","NA","20829","10205","NA","616","NA","NA","2","legacy","1024","2","48000","-16","experiment","SSHSS","1","odd","31598","245745","NA","320648","318785","320613","318279","10729","288085","NA","NA","10768","235535","NA","320765","321386","320764","NA","Flanker test","99","52989","110","yes","1024"
"90.0900900901","90.0900900901","482.531531532","482.531531532","black","no","xpyriment","legacy","legacy","0","congruent","uniform","1","undefined","1","s","0","0","0","110","110","110","110","0","110","0","NA","0","0","0","110","110","110","NA","09/08/18 21:07:28","600","The main experiment item","yes","Flankertest.osexp","C:\Users\Knitwitty\AppData\Roaming","no","mono","no","18","no","white","no","yes","768","legacy","30","79","C:/Users/Knitwitty/AppData/Roaming/KB-subject-1.csv","xpyriment","Jazzy James","3.1.9","0","s","NA","s","h","NA","s","572","NA","20829","10205","NA","572","NA","NA","2","legacy","1024","2","48000","-16","experiment","SSSSS","1","odd","31598","245745","NA","323764","321911","323728","318279","10729","321405","NA","NA","10768","235535","NA","323881","324458","323881","NA","Flanker test","100","53561","111","yes","1024"
"90.1785714286","90.1785714286","484.196428571","484.196428571","black","no","xpyriment","legacy","legacy","0","incongruent","uniform","1","undefined","1","s","0","0","0","111","111","111","111","0","111","0","NA","0","0","0","111","111","111","NA","09/08/18 21:07:28","600","The main experiment item","yes","Flankertest.osexp","C:\Users\Knitwitty\AppData\Roaming","no","mono","no","18","no","white","no","yes","768","legacy","31","79","C:/Users/Knitwitty/AppData/Roaming/KB-subject-1.csv","xpyriment","Jazzy James","3.1.9","0","s","NA","s","h","NA","s","669","NA","20829","10205","NA","669","NA","NA","2","legacy","1024","2","48000","-16","experiment","HHSHH","1","odd","31598","245745","NA","326322","324481","326285","318279","10729","321405","NA","NA","10768","235535","NA","326440","327115","326439","NA","Flanker test","101","54230","112","yes","1024"
"90.2654867257","90.2654867257","484.097345133","484.097345133","black","no","xpyriment","legacy","legacy","0","congruent","uniform","1","undefined","1","h","0","0","0","112","112","112","112","0","112","0","NA","0","0","0","112","112","112","NA","09/08/18 21:07:28","600","The main experiment item","yes","Flankertest.osexp","C:\Users\Knitwitty\AppData\Roaming","no","mono","no","18","no","white","no","yes","768","legacy","32","79","C:/Users/Knitwitty/AppData/Roaming/KB-subject-1.csv","xpyriment","Jazzy James","3.1.9","0","h","NA","s","h","NA","h","473","NA","20829","10205","NA","473","NA","NA","2","legacy","1024","2","48000","-16","experiment","HHHHH","1","odd","31598","245745","NA","329511","327652","329476","318279","10729","327147","NA","NA","10768","235535","NA","329628","330107","329627","NA","Flanker test","102","54703","113","yes","1024"
"90.350877193","90.350877193","483.903508772","483.903508772","black","no","xpyriment","legacy","legacy","0","congruent","uniform","1","undefined","1","h","0","0","0","113","113","113","113","0","113","0","NA","0","0","0","113","113","113","NA","09/08/18 21:07:28","600","The main experiment item","yes","Flankertest.osexp","C:\Users\Knitwitty\AppData\Roaming","no","mono","no","18","no","white","no","yes","768","legacy","33","79","C:/Users/Knitwitty/AppData/Roaming/KB-subject-1.csv","xpyriment","Jazzy James","3.1.9","0","h","NA","s","h","NA","h","462","NA","20829","10205","NA","462","NA","NA","2","legacy","1024","2","48000","-16","experiment","HHHHH","1","odd","31598","245745","NA","331969","330125","331933","318279","10729","327147","NA","NA","10768","235535","NA","332086","332554","332085","NA","Flanker test","103","55165","114","yes","1024"
"90.4347826087","90.4347826087","483.947826087","483.947826087","black","no","xpyriment","legacy","legacy","0","congruent","uniform","1","undefined","1","h","0","0","0","114","114","114","114","0","114","0","NA","0","0","0","114","114","114","NA","09/08/18 21:07:28","600","The main experiment item","yes","Flankertest.osexp","C:\Users\Knitwitty\AppData\Roaming","no","mono","no","18","no","white","no","yes","768","legacy","34","79","C:/Users/Knitwitty/AppData/Roaming/KB-subject-1.csv","xpyriment","Jazzy James","3.1.9","0","h","NA","s","h","NA","h","489","NA","20829","10205","NA","489","NA","NA","2","legacy","1024","2","48000","-16","experiment","HHHHH","1","odd","31598","245745","NA","334542","332680","334497","318279","10729","327147","NA","NA","10768","235535","NA","334659","335154","334659","NA","Flanker test","104","55654","115","yes","1024"
"90.5172413793","90.5172413793","483.672413793","483.672413793","black","no","xpyriment","legacy","legacy","0","congruent","uniform","1","undefined","1","h","0","0","0","115","115","115","115","0","115","0","NA","0","0","0","115","115","115","NA","09/08/18 21:07:28","600","The main experiment item","yes","Flankertest.osexp","C:\Users\Knitwitty\AppData\Roaming","no","mono","no","18","no","white","no","yes","768","legacy","35","79","C:/Users/Knitwitty/AppData/Roaming/KB-subject-1.csv","xpyriment","Jazzy James","3.1.9","0","h","NA","s","h","NA","h","452","NA","20829","10205","NA","452","NA","NA","2","legacy","1024","2","48000","-16","experiment","HHHHH","1","odd","31598","245745","NA","337035","335177","336986","318279","10729","327147","NA","NA","10768","235535","NA","337153","337611","337152","NA","Flanker test","105","56106","116","yes","1024"
"90.5982905983","90.5982905983","484.11965812","484.11965812","black","no","xpyriment","legacy","legacy","0","congruent","uniform","1","undefined","1","s","0","0","0","116","116","116","116","0","116","0","NA","0","0","0","116","116","116","NA","09/08/18 21:07:28","600","The main experiment item","yes","Flankertest.osexp","C:\Users\Knitwitty\AppData\Roaming","no","mono","no","18","no","white","no","yes","768","legacy","36","79","C:/Users/Knitwitty/AppData/Roaming/KB-subject-1.csv","xpyriment","Jazzy James","3.1.9","0","s","NA","s","h","NA","s","536","NA","20829","10205","NA","536","NA","NA","2","legacy","1024","2","48000","-16","experiment","SSSSS","1","odd","31598","245745","NA","339487","337634","339446","318279","10729","327147","NA","NA","10768","235535","NA","339604","340147","339603","NA","Flanker test","106","56642","117","yes","1024"
