condition,acc,accuracy,average_response_time,avg_rt,background,canvas_backend,clock_backend,color_backend,compensation,coordinates,correct,correct_instruction1,correct_keyboard_response,correct_response,count_Block1,count_Block2,count_Block3,count_ISI,count_Stimulus,count_errorfeedback,count_experiment,count_faster,count_finish,count_fixation,count_instruction1,count_instruction2,count_instruction3,count_keyboard_response,count_logger,count_sequence,datetime,deadline,description,disable_garbage_collection,experiment_file,experiment_path,font_bold,font_family,font_italic,font_size,font_underline,foreground,form_clicks,fullscreen,height,keyboard_backend,live_row,live_row_Block1,logfile,mouse_backend,opensesame_codename,opensesame_version,repeat_cycle,response,response_finish,response_instruction1,response_instruction2,response_instruction3,response_keyboard_response,response_time,response_time_finish,response_time_instruction1,response_time_instruction2,response_time_instruction3,response_time_keyboard_response,round_decimals,sampler_backend,sound_buf_size,sound_channels,sound_freq,sound_sample_size,start,stimulus,subject_nr,subject_parity,time_Block1,time_Block2,time_Block3,time_ISI,time_Stimulus,time_errorfeedback,time_experiment,time_faster,time_finish,time_fixation,time_instruction1,time_instruction2,time_instruction3,time_keyboard_response,time_logger,time_sequence,title,total_correct,total_response_time,total_responses,uniform_coordinates,width
incongruent,100,100,1367,1367,black,legacy,legacy,legacy,0,uniform,1,undefined,1,h,0,0,0,0,0,0,0,0,0,0,0,0,0,0,0,0,Sun Sep  9 21:50:03 2018,1500,The main experiment item,yes,FlankerTask.osexp,/Users/hannahrae97/Desktop,no,mono,no,18,no,white,no,yes,768,legacy,0,0,/Users/hannahrae97/Desktop/CTsubject-3.csv,legacy,Kafkaesque Koffka,3.2.5,0,h,NA,s,NA,NA,h,1367,NA,25984,NA,NA,1367,2,legacy,1024,2,48000,-16,experiment,SSHSS,3,odd,30615,NA,NA,NA,30866,NA,4594,NA,NA,30757,4609,NA,NA,30866,32234,30748,Flanker Task,1,1367,1,yes,1024
Congruent,100,100,979.5,979.5,black,legacy,legacy,legacy,0,uniform,1,undefined,1,s,0,0,0,1,1,1,0,1,0,1,0,0,0,1,1,1,Sun Sep  9 21:50:03 2018,1500,The main experiment item,yes,FlankerTask.osexp,/Users/hannahrae97/Desktop,no,mono,no,18,no,white,no,yes,768,legacy,1,1,/Users/hannahrae97/Desktop/CTsubject-3.csv,legacy,Kafkaesque Koffka,3.2.5,0,s,NA,s,NA,NA,s,592,NA,25984,NA,NA,592,2,legacy,1024,2,48000,-16,experiment,SSSSS,3,odd,30615,NA,NA,32256,33492,NA,4594,NA,NA,33379,4609,NA,NA,33493,34086,33370,Flanker Task,2,1959,2,yes,1024
congruent,100,100,850,850,black,legacy,legacy,legacy,0,uniform,1,undefined,1,h,0,0,0,2,2,2,0,2,0,2,0,0,0,2,2,2,Sun Sep  9 21:50:03 2018,1500,The main experiment item,yes,FlankerTask.osexp,/Users/hannahrae97/Desktop,no,mono,no,18,no,white,no,yes,768,legacy,2,2,/Users/hannahrae97/Desktop/CTsubject-3.csv,legacy,Kafkaesque Koffka,3.2.5,0,h,NA,s,NA,NA,h,591,NA,25984,NA,NA,591,2,legacy,1024,2,48000,-16,experiment,HHHHH,3,odd,30615,NA,NA,34098,35325,NA,4594,NA,NA,35212,4609,NA,NA,35325,35917,35204,Flanker Task,3,2550,3,yes,1024
incongruent,100,100,794.25,794.25,black,legacy,legacy,legacy,0,uniform,1,undefined,1,s,0,0,0,3,3,3,0,3,0,3,0,0,0,3,3,3,Sun Sep  9 21:50:03 2018,1500,The main experiment item,yes,FlankerTask.osexp,/Users/hannahrae97/Desktop,no,mono,no,18,no,white,no,yes,768,legacy,3,3,/Users/hannahrae97/Desktop/CTsubject-3.csv,legacy,Kafkaesque Koffka,3.2.5,0,s,NA,s,NA,NA,s,627,NA,25984,NA,NA,627,2,legacy,1024,2,48000,-16,experiment,HHSHH,3,odd,30615,NA,NA,35929,37140,NA,4594,NA,NA,37030,4609,NA,NA,37140,37768,37022,Flanker Task,4,3177,4,yes,1024
Congruent,80,80,831,831,black,legacy,legacy,legacy,0,uniform,0,undefined,0,s,0,0,0,4,4,4,0,4,0,4,0,0,0,4,4,4,Sun Sep  9 21:50:03 2018,1500,The main experiment item,yes,FlankerTask.osexp,/Users/hannahrae97/Desktop,no,mono,no,18,no,white,no,yes,768,legacy,4,4,/Users/hannahrae97/Desktop/CTsubject-3.csv,legacy,Kafkaesque Koffka,3.2.5,0,h,NA,s,NA,NA,h,978,NA,25984,NA,NA,978,2,legacy,1024,2,48000,-16,experiment,SSSSS,3,odd,30615,NA,NA,37780,38992,NA,4594,NA,NA,38881,4609,NA,NA,38992,39971,38872,Flanker Task,4,4155,5,yes,1024
congruent,83.33333333,83.33333333,853.6666667,853.6666667,black,legacy,legacy,legacy,0,uniform,1,undefined,1,h,0,0,0,5,5,5,0,5,0,5,0,0,0,5,5,5,Sun Sep  9 21:50:03 2018,1500,The main experiment item,yes,FlankerTask.osexp,/Users/hannahrae97/Desktop,no,mono,no,18,no,white,no,yes,768,legacy,5,5,/Users/hannahrae97/Desktop/CTsubject-3.csv,legacy,Kafkaesque Koffka,3.2.5,0,h,NA,s,NA,NA,h,967,NA,25984,NA,NA,967,2,legacy,1024,2,48000,-16,experiment,HHHHH,3,odd,30615,NA,NA,40492,41723,39983,4594,NA,NA,41613,4609,NA,NA,41723,42691,41604,Flanker Task,5,5122,6,yes,1024
congruent,85.71428571,85.71428571,802.5714286,802.5714286,black,legacy,legacy,legacy,0,uniform,1,undefined,1,h,0,0,0,6,6,6,0,6,0,6,0,0,0,6,6,6,Sun Sep  9 21:50:03 2018,1500,The main experiment item,yes,FlankerTask.osexp,/Users/hannahrae97/Desktop,no,mono,no,18,no,white,no,yes,768,legacy,6,6,/Users/hannahrae97/Desktop/CTsubject-3.csv,legacy,Kafkaesque Koffka,3.2.5,0,h,NA,s,NA,NA,h,496,NA,25984,NA,NA,496,2,legacy,1024,2,48000,-16,experiment,HHHHH,3,odd,30615,NA,NA,42703,43921,39983,4594,NA,NA,43811,4609,NA,NA,43921,44418,43803,Flanker Task,6,5618,7,yes,1024
incongruent,87.5,87.5,798.75,798.75,black,legacy,legacy,legacy,0,uniform,1,undefined,1,h,0,0,0,7,7,7,0,7,0,7,0,0,0,7,7,7,Sun Sep  9 21:50:03 2018,1500,The main experiment item,yes,FlankerTask.osexp,/Users/hannahrae97/Desktop,no,mono,no,18,no,white,no,yes,768,legacy,7,7,/Users/hannahrae97/Desktop/CTsubject-3.csv,legacy,Kafkaesque Koffka,3.2.5,0,h,NA,s,NA,NA,h,772,NA,25984,NA,NA,772,2,legacy,1024,2,48000,-16,experiment,SSHSS,3,odd,30615,NA,NA,44434,45659,39983,4594,NA,NA,45551,4609,NA,NA,45659,46432,45540,Flanker Task,7,6390,8,yes,1024
Congruent,88.88888889,88.88888889,786.5555556,786.5555556,black,legacy,legacy,legacy,0,uniform,1,undefined,1,s,0,0,0,8,8,8,0,8,0,8,0,0,0,8,8,8,Sun Sep  9 21:50:03 2018,1500,The main experiment item,yes,FlankerTask.osexp,/Users/hannahrae97/Desktop,no,mono,no,18,no,white,no,yes,768,legacy,8,8,/Users/hannahrae97/Desktop/CTsubject-3.csv,legacy,Kafkaesque Koffka,3.2.5,0,s,NA,s,NA,NA,s,689,NA,25984,NA,NA,689,2,legacy,1024,2,48000,-16,experiment,SSSSS,3,odd,30615,NA,NA,46446,47661,39983,4594,NA,NA,47549,4609,NA,NA,47662,48352,47541,Flanker Task,8,7079,9,yes,1024
incongruent,90,90,785.4,785.4,black,legacy,legacy,legacy,0,uniform,1,undefined,1,s,0,0,0,9,9,9,0,9,0,9,0,0,0,9,9,9,Sun Sep  9 21:50:03 2018,1500,The main experiment item,yes,FlankerTask.osexp,/Users/hannahrae97/Desktop,no,mono,no,18,no,white,no,yes,768,legacy,9,9,/Users/hannahrae97/Desktop/CTsubject-3.csv,legacy,Kafkaesque Koffka,3.2.5,0,s,NA,s,NA,NA,s,775,NA,25984,NA,NA,775,2,legacy,1024,2,48000,-16,experiment,HHSHH,3,odd,30615,NA,NA,48364,49588,39983,4594,NA,NA,49476,4609,NA,NA,49589,50365,49468,Flanker Task,9,7854,10,yes,1024
incongruent,90.90909091,90.90909091,774.7272727,774.7272727,black,legacy,legacy,legacy,0,uniform,1,undefined,1,s,0,0,0,10,10,10,0,10,0,10,0,0,0,10,10,10,Sun Sep  9 21:50:03 2018,1500,The main experiment item,yes,FlankerTask.osexp,/Users/hannahrae97/Desktop,no,mono,no,18,no,white,no,yes,768,legacy,10,10,/Users/hannahrae97/Desktop/CTsubject-3.csv,legacy,Kafkaesque Koffka,3.2.5,0,s,NA,s,NA,NA,s,668,NA,25984,NA,NA,668,2,legacy,1024,2,48000,-16,experiment,HHSHH,3,odd,30615,NA,NA,50377,51594,39983,4594,NA,NA,51483,4609,NA,NA,51594,52263,51474,Flanker Task,10,8522,11,yes,1024
Congruent,91.66666667,91.66666667,768.4166667,768.4166667,black,legacy,legacy,legacy,0,uniform,1,undefined,1,s,0,0,0,11,11,11,0,11,0,11,0,0,0,11,11,11,Sun Sep  9 21:50:03 2018,1500,The main experiment item,yes,FlankerTask.osexp,/Users/hannahrae97/Desktop,no,mono,no,18,no,white,no,yes,768,legacy,11,11,/Users/hannahrae97/Desktop/CTsubject-3.csv,legacy,Kafkaesque Koffka,3.2.5,0,s,NA,s,NA,NA,s,699,NA,25984,NA,NA,699,2,legacy,1024,2,48000,-16,experiment,SSSSS,3,odd,30615,NA,NA,52275,53489,39983,4594,NA,NA,53377,4609,NA,NA,53489,54189,53368,Flanker Task,11,9221,12,yes,1024
incongruent,92.30769231,92.30769231,760.0769231,760.0769231,black,legacy,legacy,legacy,0,uniform,1,undefined,1,h,0,0,0,12,12,12,0,12,0,12,0,0,0,12,12,12,Sun Sep  9 21:50:03 2018,1500,The main experiment item,yes,FlankerTask.osexp,/Users/hannahrae97/Desktop,no,mono,no,18,no,white,no,yes,768,legacy,12,12,/Users/hannahrae97/Desktop/CTsubject-3.csv,legacy,Kafkaesque Koffka,3.2.5,0,h,NA,s,NA,NA,h,660,NA,25984,NA,NA,660,2,legacy,1024,2,48000,-16,experiment,SSHSS,3,odd,30615,NA,NA,54206,55445,39983,4594,NA,NA,55337,4609,NA,NA,55446,56107,55328,Flanker Task,12,9881,13,yes,1024
incongruent,92.85714286,92.85714286,793.5,793.5,black,legacy,legacy,legacy,0,uniform,1,undefined,1,s,0,0,0,13,13,13,0,13,0,13,0,0,0,13,13,13,Sun Sep  9 21:50:03 2018,1500,The main experiment item,yes,FlankerTask.osexp,/Users/hannahrae97/Desktop,no,mono,no,18,no,white,no,yes,768,legacy,13,13,/Users/hannahrae97/Desktop/CTsubject-3.csv,legacy,Kafkaesque Koffka,3.2.5,0,s,NA,s,NA,NA,s,1228,NA,25984,NA,NA,1228,2,legacy,1024,2,48000,-16,experiment,HHSHH,3,odd,30615,NA,NA,56119,57336,39983,4594,NA,NA,57224,4609,NA,NA,57337,58566,57215,Flanker Task,13,11109,14,yes,1024
Congruent,93.33333333,93.33333333,775.7333333,775.7333333,black,legacy,legacy,legacy,0,uniform,1,undefined,1,s,0,0,0,14,14,14,0,14,0,14,0,0,0,14,14,14,Sun Sep  9 21:50:03 2018,1500,The main experiment item,yes,FlankerTask.osexp,/Users/hannahrae97/Desktop,no,mono,no,18,no,white,no,yes,768,legacy,14,14,/Users/hannahrae97/Desktop/CTsubject-3.csv,legacy,Kafkaesque Koffka,3.2.5,0,s,NA,s,NA,NA,s,527,NA,25984,NA,NA,527,2,legacy,1024,2,48000,-16,experiment,SSSSS,3,odd,30615,NA,NA,58578,59795,39983,4594,NA,NA,59683,4609,NA,NA,59795,60323,59673,Flanker Task,14,11636,15,yes,1024
Congruent,93.75,93.75,756.75,756.75,black,legacy,legacy,legacy,0,uniform,1,undefined,1,s,0,0,0,15,15,15,0,15,0,15,0,0,0,15,15,15,Sun Sep  9 21:50:03 2018,1500,The main experiment item,yes,FlankerTask.osexp,/Users/hannahrae97/Desktop,no,mono,no,18,no,white,no,yes,768,legacy,15,15,/Users/hannahrae97/Desktop/CTsubject-3.csv,legacy,Kafkaesque Koffka,3.2.5,0,s,NA,s,NA,NA,s,472,NA,25984,NA,NA,472,2,legacy,1024,2,48000,-16,experiment,SSSSS,3,odd,30615,NA,NA,60335,61547,39983,4594,NA,NA,61438,4609,NA,NA,61547,62020,61429,Flanker Task,15,12108,16,yes,1024
congruent,94.11764706,94.11764706,740.1176471,740.1176471,black,legacy,legacy,legacy,0,uniform,1,undefined,1,h,0,0,0,16,16,16,0,16,0,16,0,0,0,16,16,16,Sun Sep  9 21:50:03 2018,1500,The main experiment item,yes,FlankerTask.osexp,/Users/hannahrae97/Desktop,no,mono,no,18,no,white,no,yes,768,legacy,16,16,/Users/hannahrae97/Desktop/CTsubject-3.csv,legacy,Kafkaesque Koffka,3.2.5,0,h,NA,s,NA,NA,h,474,NA,25984,NA,NA,474,2,legacy,1024,2,48000,-16,experiment,HHHHH,3,odd,30615,NA,NA,62033,63241,39983,4594,NA,NA,63132,4609,NA,NA,63241,63717,63124,Flanker Task,16,12582,17,yes,1024
incongruent,94.44444444,94.44444444,738.2222222,738.2222222,black,legacy,legacy,legacy,0,uniform,1,undefined,1,h,0,0,0,17,17,17,0,17,0,17,0,0,0,17,17,17,Sun Sep  9 21:50:03 2018,1500,The main experiment item,yes,FlankerTask.osexp,/Users/hannahrae97/Desktop,no,mono,no,18,no,white,no,yes,768,legacy,17,17,/Users/hannahrae97/Desktop/CTsubject-3.csv,legacy,Kafkaesque Koffka,3.2.5,0,h,NA,s,NA,NA,h,706,NA,25984,NA,NA,706,2,legacy,1024,2,48000,-16,experiment,SSHSS,3,odd,30615,NA,NA,63730,64943,39983,4594,NA,NA,64830,4609,NA,NA,64943,65650,64820,Flanker Task,17,13288,18,yes,1024
incongruent,94.73684211,94.73684211,724,724,black,legacy,legacy,legacy,0,uniform,1,undefined,1,h,0,0,0,18,18,18,0,18,0,18,0,0,0,18,18,18,Sun Sep  9 21:50:03 2018,1500,The main experiment item,yes,FlankerTask.osexp,/Users/hannahrae97/Desktop,no,mono,no,18,no,white,no,yes,768,legacy,18,18,/Users/hannahrae97/Desktop/CTsubject-3.csv,legacy,Kafkaesque Koffka,3.2.5,0,h,NA,s,NA,NA,h,468,NA,25984,NA,NA,468,2,legacy,1024,2,48000,-16,experiment,SSHSS,3,odd,30615,NA,NA,65660,66877,39983,4594,NA,NA,66765,4609,NA,NA,66877,67346,66755,Flanker Task,18,13756,19,yes,1024
Congruent,95,95,711.2,711.2,black,legacy,legacy,legacy,0,uniform,1,undefined,1,s,0,0,0,19,19,19,0,19,0,19,0,0,0,19,19,19,Sun Sep  9 21:50:03 2018,1500,The main experiment item,yes,FlankerTask.osexp,/Users/hannahrae97/Desktop,no,mono,no,18,no,white,no,yes,768,legacy,19,19,/Users/hannahrae97/Desktop/CTsubject-3.csv,legacy,Kafkaesque Koffka,3.2.5,0,s,NA,s,NA,NA,s,468,NA,25984,NA,NA,468,2,legacy,1024,2,48000,-16,experiment,SSSSS,3,odd,30615,NA,NA,67359,68577,39983,4594,NA,NA,68468,4609,NA,NA,68577,69046,68459,Flanker Task,19,14224,20,yes,1024
incongruent,95.23809524,95.23809524,704.5238095,704.5238095,black,legacy,legacy,legacy,0,uniform,1,undefined,1,s,0,0,0,20,20,20,0,20,0,20,0,0,0,20,20,20,Sun Sep  9 21:50:03 2018,1500,The main experiment item,yes,FlankerTask.osexp,/Users/hannahrae97/Desktop,no,mono,no,18,no,white,no,yes,768,legacy,20,20,/Users/hannahrae97/Desktop/CTsubject-3.csv,legacy,Kafkaesque Koffka,3.2.5,0,s,NA,s,NA,NA,s,571,NA,25984,NA,NA,571,2,legacy,1024,2,48000,-16,experiment,HHSHH,3,odd,30615,NA,NA,69059,70276,39983,4594,NA,NA,70163,4609,NA,NA,70276,70848,70155,Flanker Task,20,14795,21,yes,1024
incongruent,95.45454545,95.45454545,695.8181818,695.8181818,black,legacy,legacy,legacy,0,uniform,1,undefined,1,h,0,0,0,21,21,21,0,21,0,21,0,0,0,21,21,21,Sun Sep  9 21:50:03 2018,1500,The main experiment item,yes,FlankerTask.osexp,/Users/hannahrae97/Desktop,no,mono,no,18,no,white,no,yes,768,legacy,21,21,/Users/hannahrae97/Desktop/CTsubject-3.csv,legacy,Kafkaesque Koffka,3.2.5,0,h,NA,s,NA,NA,h,513,NA,25984,NA,NA,513,2,legacy,1024,2,48000,-16,experiment,SSHSS,3,odd,30615,NA,NA,70859,72082,39983,4594,NA,NA,71969,4609,NA,NA,72082,72596,71961,Flanker Task,21,15308,22,yes,1024
Congruent,95.65217391,95.65217391,689.5652174,689.5652174,black,legacy,legacy,legacy,0,uniform,1,undefined,1,s,0,0,0,22,22,22,0,22,0,22,0,0,0,22,22,22,Sun Sep  9 21:50:03 2018,1500,The main experiment item,yes,FlankerTask.osexp,/Users/hannahrae97/Desktop,no,mono,no,18,no,white,no,yes,768,legacy,22,22,/Users/hannahrae97/Desktop/CTsubject-3.csv,legacy,Kafkaesque Koffka,3.2.5,0,s,NA,s,NA,NA,s,552,NA,25984,NA,NA,552,2,legacy,1024,2,48000,-16,experiment,SSSSS,3,odd,30615,NA,NA,72608,73826,39983,4594,NA,NA,73712,4609,NA,NA,73827,74380,73704,Flanker Task,22,15860,23,yes,1024
incongruent,95.83333333,95.83333333,684.6666667,684.6666667,black,legacy,legacy,legacy,0,uniform,1,undefined,1,s,0,0,0,23,23,23,0,23,0,23,0,0,0,23,23,23,Sun Sep  9 21:50:03 2018,1500,The main experiment item,yes,FlankerTask.osexp,/Users/hannahrae97/Desktop,no,mono,no,18,no,white,no,yes,768,legacy,23,23,/Users/hannahrae97/Desktop/CTsubject-3.csv,legacy,Kafkaesque Koffka,3.2.5,0,s,NA,s,NA,NA,s,572,NA,25984,NA,NA,572,2,legacy,1024,2,48000,-16,experiment,HHSHH,3,odd,30615,NA,NA,74398,75606,39983,4594,NA,NA,75497,4609,NA,NA,75606,76179,75489,Flanker Task,23,16432,24,yes,1024
congruent,96,96,676.56,676.56,black,legacy,legacy,legacy,0,uniform,1,undefined,1,h,0,0,0,24,24,24,0,24,0,24,0,0,0,24,24,24,Sun Sep  9 21:50:03 2018,1500,The main experiment item,yes,FlankerTask.osexp,/Users/hannahrae97/Desktop,no,mono,no,18,no,white,no,yes,768,legacy,24,24,/Users/hannahrae97/Desktop/CTsubject-3.csv,legacy,Kafkaesque Koffka,3.2.5,0,h,NA,s,NA,NA,h,482,NA,25984,NA,NA,482,2,legacy,1024,2,48000,-16,experiment,HHHHH,3,odd,30615,NA,NA,76196,77422,39983,4594,NA,NA,77307,4609,NA,NA,77422,77906,77298,Flanker Task,24,16914,25,yes,1024
Congruent,96.15384615,96.15384615,665.5769231,665.5769231,black,legacy,legacy,legacy,0,uniform,1,undefined,1,s,0,0,0,25,25,25,0,25,0,25,0,0,0,25,25,25,Sun Sep  9 21:50:03 2018,1500,The main experiment item,yes,FlankerTask.osexp,/Users/hannahrae97/Desktop,no,mono,no,18,no,white,no,yes,768,legacy,25,25,/Users/hannahrae97/Desktop/CTsubject-3.csv,legacy,Kafkaesque Koffka,3.2.5,0,s,NA,s,NA,NA,s,391,NA,25984,NA,NA,391,2,legacy,1024,2,48000,-16,experiment,SSSSS,3,odd,30615,NA,NA,77918,79136,39983,4594,NA,NA,79023,4609,NA,NA,79136,79528,79014,Flanker Task,25,17305,26,yes,1024
congruent,96.2962963,96.2962963,661.2592593,661.2592593,black,legacy,legacy,legacy,0,uniform,1,undefined,1,h,0,0,0,26,26,26,0,26,0,26,0,0,0,26,26,26,Sun Sep  9 21:50:03 2018,1500,The main experiment item,yes,FlankerTask.osexp,/Users/hannahrae97/Desktop,no,mono,no,18,no,white,no,yes,768,legacy,26,26,/Users/hannahrae97/Desktop/CTsubject-3.csv,legacy,Kafkaesque Koffka,3.2.5,0,h,NA,s,NA,NA,h,549,NA,25984,NA,NA,549,2,legacy,1024,2,48000,-16,experiment,HHHHH,3,odd,30615,NA,NA,79540,80755,39983,4594,NA,NA,80646,4609,NA,NA,80755,81305,80638,Flanker Task,26,17854,27,yes,1024
incongruent,96.42857143,96.42857143,654.75,654.75,black,legacy,legacy,legacy,0,uniform,1,undefined,1,s,0,0,0,27,27,27,0,27,0,27,0,0,0,27,27,27,Sun Sep  9 21:50:03 2018,1500,The main experiment item,yes,FlankerTask.osexp,/Users/hannahrae97/Desktop,no,mono,no,18,no,white,no,yes,768,legacy,27,27,/Users/hannahrae97/Desktop/CTsubject-3.csv,legacy,Kafkaesque Koffka,3.2.5,0,s,NA,s,NA,NA,s,479,NA,25984,NA,NA,479,2,legacy,1024,2,48000,-16,experiment,HHSHH,3,odd,30615,NA,NA,81317,82533,39983,4594,NA,NA,82422,4609,NA,NA,82533,83013,82414,Flanker Task,27,18333,28,yes,1024
Congruent,96.55172414,96.55172414,651.6551724,651.6551724,black,legacy,legacy,legacy,0,uniform,1,undefined,1,s,0,0,0,28,28,28,0,28,0,28,0,0,0,28,28,28,Sun Sep  9 21:50:03 2018,1500,The main experiment item,yes,FlankerTask.osexp,/Users/hannahrae97/Desktop,no,mono,no,18,no,white,no,yes,768,legacy,28,28,/Users/hannahrae97/Desktop/CTsubject-3.csv,legacy,Kafkaesque Koffka,3.2.5,0,s,NA,s,NA,NA,s,565,NA,25984,NA,NA,565,2,legacy,1024,2,48000,-16,experiment,SSSSS,3,odd,30615,NA,NA,83026,84248,39983,4594,NA,NA,84135,4609,NA,NA,84248,84815,84126,Flanker Task,28,18898,29,yes,1024
incongruent,96.66666667,96.66666667,647.6,647.6,black,legacy,legacy,legacy,0,uniform,1,undefined,1,h,0,0,0,29,29,29,0,29,0,29,0,0,0,29,29,29,Sun Sep  9 21:50:03 2018,1500,The main experiment item,yes,FlankerTask.osexp,/Users/hannahrae97/Desktop,no,mono,no,18,no,white,no,yes,768,legacy,29,29,/Users/hannahrae97/Desktop/CTsubject-3.csv,legacy,Kafkaesque Koffka,3.2.5,0,h,NA,s,NA,NA,h,530,NA,25984,NA,NA,530,2,legacy,1024,2,48000,-16,experiment,SSHSS,3,odd,30615,NA,NA,84828,86046,39983,4594,NA,NA,85938,4609,NA,NA,86046,86577,85929,Flanker Task,29,19428,30,yes,1024
incongruent,96.77419355,96.77419355,643.0967742,643.0967742,black,legacy,legacy,legacy,0,uniform,1,undefined,1,s,0,0,0,30,30,30,0,30,0,30,0,0,0,30,30,30,Sun Sep  9 21:50:03 2018,1500,The main experiment item,yes,FlankerTask.osexp,/Users/hannahrae97/Desktop,no,mono,no,18,no,white,no,yes,768,legacy,30,30,/Users/hannahrae97/Desktop/CTsubject-3.csv,legacy,Kafkaesque Koffka,3.2.5,0,s,NA,s,NA,NA,s,508,NA,25984,NA,NA,508,2,legacy,1024,2,48000,-16,experiment,HHSHH,3,odd,30615,NA,NA,86590,87807,39983,4594,NA,NA,87695,4609,NA,NA,87808,88317,87686,Flanker Task,30,19936,31,yes,1024
incongruent,96.875,96.875,640.71875,640.71875,black,legacy,legacy,legacy,0,uniform,1,undefined,1,h,0,0,0,31,31,31,0,31,0,31,0,0,0,31,31,31,Sun Sep  9 21:50:03 2018,1500,The main experiment item,yes,FlankerTask.osexp,/Users/hannahrae97/Desktop,no,mono,no,18,no,white,no,yes,768,legacy,31,31,/Users/hannahrae97/Desktop/CTsubject-3.csv,legacy,Kafkaesque Koffka,3.2.5,0,h,NA,s,NA,NA,h,567,NA,25984,NA,NA,567,2,legacy,1024,2,48000,-16,experiment,SSHSS,3,odd,30615,NA,NA,88331,89548,39983,4594,NA,NA,89440,4609,NA,NA,89549,90117,89431,Flanker Task,31,20503,32,yes,1024
congruent,96.96969697,96.96969697,639.969697,639.969697,black,legacy,legacy,legacy,0,uniform,1,undefined,1,h,0,0,0,32,32,32,0,32,0,32,0,0,0,32,32,32,Sun Sep  9 21:50:03 2018,1500,The main experiment item,yes,FlankerTask.osexp,/Users/hannahrae97/Desktop,no,mono,no,18,no,white,no,yes,768,legacy,32,32,/Users/hannahrae97/Desktop/CTsubject-3.csv,legacy,Kafkaesque Koffka,3.2.5,0,h,NA,s,NA,NA,h,616,NA,25984,NA,NA,616,2,legacy,1024,2,48000,-16,experiment,HHHHH,3,odd,30615,NA,NA,90129,91349,39983,4594,NA,NA,91235,4609,NA,NA,91350,91967,91226,Flanker Task,32,21119,33,yes,1024
incongruent,97.05882353,97.05882353,637.8529412,637.8529412,black,legacy,legacy,legacy,0,uniform,1,undefined,1,h,0,0,0,33,33,33,0,33,0,33,0,0,0,33,33,33,Sun Sep  9 21:50:03 2018,1500,The main experiment item,yes,FlankerTask.osexp,/Users/hannahrae97/Desktop,no,mono,no,18,no,white,no,yes,768,legacy,33,33,/Users/hannahrae97/Desktop/CTsubject-3.csv,legacy,Kafkaesque Koffka,3.2.5,0,h,NA,s,NA,NA,h,568,NA,25984,NA,NA,568,2,legacy,1024,2,48000,-16,experiment,SSHSS,3,odd,30615,NA,NA,91979,93192,39983,4594,NA,NA,93081,4609,NA,NA,93192,93761,93069,Flanker Task,33,21687,34,yes,1024
congruent,97.14285714,97.14285714,635.2857143,635.2857143,black,legacy,legacy,legacy,0,uniform,1,undefined,1,h,0,0,0,34,34,34,0,34,0,34,0,0,0,34,34,34,Sun Sep  9 21:50:03 2018,1500,The main experiment item,yes,FlankerTask.osexp,/Users/hannahrae97/Desktop,no,mono,no,18,no,white,no,yes,768,legacy,34,34,/Users/hannahrae97/Desktop/CTsubject-3.csv,legacy,Kafkaesque Koffka,3.2.5,0,h,NA,s,NA,NA,h,548,NA,25984,NA,NA,548,2,legacy,1024,2,48000,-16,experiment,HHHHH,3,odd,30615,NA,NA,93773,94994,39983,4594,NA,NA,94886,4609,NA,NA,94994,95543,94877,Flanker Task,34,22235,35,yes,1024
congruent,97.22222222,97.22222222,630.1666667,630.1666667,black,legacy,legacy,legacy,0,uniform,1,undefined,1,h,0,0,0,35,35,35,0,35,0,35,0,0,0,35,35,35,Sun Sep  9 21:50:03 2018,1500,The main experiment item,yes,FlankerTask.osexp,/Users/hannahrae97/Desktop,no,mono,no,18,no,white,no,yes,768,legacy,35,35,/Users/hannahrae97/Desktop/CTsubject-3.csv,legacy,Kafkaesque Koffka,3.2.5,0,h,NA,s,NA,NA,h,451,NA,25984,NA,NA,451,2,legacy,1024,2,48000,-16,experiment,HHHHH,3,odd,30615,NA,NA,95555,96774,39983,4594,NA,NA,96661,4609,NA,NA,96774,97227,96652,Flanker Task,35,22686,36,yes,1024
Congruent,97.2972973,97.2972973,626.9459459,626.9459459,black,legacy,legacy,legacy,0,uniform,1,undefined,1,s,0,0,0,36,36,36,0,36,0,36,0,0,0,36,36,36,Sun Sep  9 21:50:03 2018,1500,The main experiment item,yes,FlankerTask.osexp,/Users/hannahrae97/Desktop,no,mono,no,18,no,white,no,yes,768,legacy,36,36,/Users/hannahrae97/Desktop/CTsubject-3.csv,legacy,Kafkaesque Koffka,3.2.5,0,s,NA,s,NA,NA,s,511,NA,25984,NA,NA,511,2,legacy,1024,2,48000,-16,experiment,SSSSS,3,odd,30615,NA,NA,97241,98452,39983,4594,NA,NA,98343,4609,NA,NA,98453,98966,98333,Flanker Task,36,23197,37,yes,1024
Congruent,97.36842105,97.36842105,621.6842105,621.6842105,black,legacy,legacy,legacy,0,uniform,1,undefined,1,s,0,0,0,37,37,37,0,37,0,37,0,0,0,37,37,37,Sun Sep  9 21:50:03 2018,1500,The main experiment item,yes,FlankerTask.osexp,/Users/hannahrae97/Desktop,no,mono,no,18,no,white,no,yes,768,legacy,37,37,/Users/hannahrae97/Desktop/CTsubject-3.csv,legacy,Kafkaesque Koffka,3.2.5,0,s,NA,s,NA,NA,s,427,NA,25984,NA,NA,427,2,legacy,1024,2,48000,-16,experiment,SSSSS,3,odd,30615,NA,NA,98977,100196,39983,4594,NA,NA,100083,4609,NA,NA,100196,100624,100074,Flanker Task,37,23624,38,yes,1024
incongruent,97.43589744,97.43589744,620.5384615,620.5384615,black,legacy,legacy,legacy,0,uniform,1,undefined,1,s,0,0,0,38,38,38,0,38,0,38,0,0,0,38,38,38,Sun Sep  9 21:50:03 2018,1500,The main experiment item,yes,FlankerTask.osexp,/Users/hannahrae97/Desktop,no,mono,no,18,no,white,no,yes,768,legacy,38,38,/Users/hannahrae97/Desktop/CTsubject-3.csv,legacy,Kafkaesque Koffka,3.2.5,0,s,NA,s,NA,NA,s,577,NA,25984,NA,NA,577,2,legacy,1024,2,48000,-16,experiment,HHSHH,3,odd,30615,NA,NA,100636,101853,39983,4594,NA,NA,101739,4609,NA,NA,101853,102432,101730,Flanker Task,38,24201,39,yes,1024
congruent,97.5,97.5,618.95,618.95,black,legacy,legacy,legacy,0,uniform,1,undefined,1,h,0,0,0,39,39,39,0,39,0,39,0,0,0,39,39,39,Sun Sep  9 21:50:03 2018,1500,The main experiment item,yes,FlankerTask.osexp,/Users/hannahrae97/Desktop,no,mono,no,18,no,white,no,yes,768,legacy,39,39,/Users/hannahrae97/Desktop/CTsubject-3.csv,legacy,Kafkaesque Koffka,3.2.5,0,h,NA,s,NA,NA,h,557,NA,25984,NA,NA,557,2,legacy,1024,2,48000,-16,experiment,HHHHH,3,odd,30615,NA,NA,102445,103658,39983,4594,NA,NA,103544,4609,NA,NA,103658,104217,103535,Flanker Task,39,24758,40,yes,1024
incongruent,97.56097561,97.56097561,617.0487805,617.0487805,black,legacy,legacy,legacy,0,uniform,1,undefined,1,s,0,0,0,40,40,40,0,40,0,40,0,0,0,40,40,40,Sun Sep  9 21:50:03 2018,1500,The main experiment item,yes,FlankerTask.osexp,/Users/hannahrae97/Desktop,no,mono,no,18,no,white,no,yes,768,legacy,40,40,/Users/hannahrae97/Desktop/CTsubject-3.csv,legacy,Kafkaesque Koffka,3.2.5,0,s,NA,s,NA,NA,s,541,NA,25984,NA,NA,541,2,legacy,1024,2,48000,-16,experiment,HHSHH,3,odd,30615,NA,NA,104228,105438,39983,4594,NA,NA,105330,4609,NA,NA,105438,105981,105322,Flanker Task,40,25299,41,yes,1024
congruent,97.61904762,97.61904762,619.7619048,619.7619048,black,legacy,legacy,legacy,0,uniform,1,undefined,1,h,0,0,0,41,41,41,0,41,0,41,0,0,0,41,41,41,Sun Sep  9 21:50:03 2018,1500,The main experiment item,yes,FlankerTask.osexp,/Users/hannahrae97/Desktop,no,mono,no,18,no,white,no,yes,768,legacy,41,41,/Users/hannahrae97/Desktop/CTsubject-3.csv,legacy,Kafkaesque Koffka,3.2.5,0,h,NA,s,NA,NA,h,731,NA,25984,NA,NA,731,2,legacy,1024,2,48000,-16,experiment,HHHHH,3,odd,30615,NA,NA,105993,107214,39983,4594,NA,NA,107104,4609,NA,NA,107214,107947,107095,Flanker Task,41,26030,42,yes,1024
incongruent,97.6744186,97.6744186,616.5348837,616.5348837,black,legacy,legacy,legacy,0,uniform,1,undefined,1,s,0,0,0,42,42,42,0,42,0,42,0,0,0,42,42,42,Sun Sep  9 21:50:03 2018,1500,The main experiment item,yes,FlankerTask.osexp,/Users/hannahrae97/Desktop,no,mono,no,18,no,white,no,yes,768,legacy,42,42,/Users/hannahrae97/Desktop/CTsubject-3.csv,legacy,Kafkaesque Koffka,3.2.5,0,s,NA,s,NA,NA,s,481,NA,25984,NA,NA,481,2,legacy,1024,2,48000,-16,experiment,HHSHH,3,odd,30615,NA,NA,107959,109168,39983,4594,NA,NA,109058,4609,NA,NA,109168,109651,109049,Flanker Task,42,26511,43,yes,1024
incongruent,97.72727273,97.72727273,612.5909091,612.5909091,black,legacy,legacy,legacy,0,uniform,1,undefined,1,s,0,0,0,43,43,43,0,43,0,43,0,0,0,43,43,43,Sun Sep  9 21:50:03 2018,1500,The main experiment item,yes,FlankerTask.osexp,/Users/hannahrae97/Desktop,no,mono,no,18,no,white,no,yes,768,legacy,43,43,/Users/hannahrae97/Desktop/CTsubject-3.csv,legacy,Kafkaesque Koffka,3.2.5,0,s,NA,s,NA,NA,s,443,NA,25984,NA,NA,443,2,legacy,1024,2,48000,-16,experiment,HHSHH,3,odd,30615,NA,NA,109663,110882,39983,4594,NA,NA,110768,4609,NA,NA,110882,111327,110758,Flanker Task,43,26954,44,yes,1024
incongruent,97.77777778,97.77777778,612.1777778,612.1777778,black,legacy,legacy,legacy,0,uniform,1,undefined,1,h,0,0,0,44,44,44,0,44,0,44,0,0,0,44,44,44,Sun Sep  9 21:50:03 2018,1500,The main experiment item,yes,FlankerTask.osexp,/Users/hannahrae97/Desktop,no,mono,no,18,no,white,no,yes,768,legacy,44,44,/Users/hannahrae97/Desktop/CTsubject-3.csv,legacy,Kafkaesque Koffka,3.2.5,0,h,NA,s,NA,NA,h,594,NA,25984,NA,NA,594,2,legacy,1024,2,48000,-16,experiment,SSHSS,3,odd,30615,NA,NA,111340,112555,39983,4594,NA,NA,112440,4609,NA,NA,112556,113152,112431,Flanker Task,44,27548,45,yes,1024
Congruent,97.82608696,97.82608696,610.4782609,610.4782609,black,legacy,legacy,legacy,0,uniform,1,undefined,1,s,0,0,0,45,45,45,0,45,0,45,0,0,0,45,45,45,Sun Sep  9 21:50:03 2018,1500,The main experiment item,yes,FlankerTask.osexp,/Users/hannahrae97/Desktop,no,mono,no,18,no,white,no,yes,768,legacy,45,45,/Users/hannahrae97/Desktop/CTsubject-3.csv,legacy,Kafkaesque Koffka,3.2.5,0,s,NA,s,NA,NA,s,534,NA,25984,NA,NA,534,2,legacy,1024,2,48000,-16,experiment,SSSSS,3,odd,30615,NA,NA,113163,114373,39983,4594,NA,NA,114265,4609,NA,NA,114373,114909,114255,Flanker Task,45,28082,46,yes,1024
incongruent,97.87234043,97.87234043,613.2765957,613.2765957,black,legacy,legacy,legacy,0,uniform,1,undefined,1,s,0,0,0,46,46,46,0,46,0,46,0,0,0,46,46,46,Sun Sep  9 21:50:03 2018,1500,The main experiment item,yes,FlankerTask.osexp,/Users/hannahrae97/Desktop,no,mono,no,18,no,white,no,yes,768,legacy,46,46,/Users/hannahrae97/Desktop/CTsubject-3.csv,legacy,Kafkaesque Koffka,3.2.5,0,s,NA,s,NA,NA,s,742,NA,25984,NA,NA,742,2,legacy,1024,2,48000,-16,experiment,HHSHH,3,odd,30615,NA,NA,114924,116141,39983,4594,NA,NA,116032,4609,NA,NA,116141,116885,116025,Flanker Task,46,28824,47,yes,1024
incongruent,97.91666667,97.91666667,611.25,611.25,black,legacy,legacy,legacy,0,uniform,1,undefined,1,h,0,0,0,47,47,47,0,47,0,47,0,0,0,47,47,47,Sun Sep  9 21:50:03 2018,1500,The main experiment item,yes,FlankerTask.osexp,/Users/hannahrae97/Desktop,no,mono,no,18,no,white,no,yes,768,legacy,47,47,/Users/hannahrae97/Desktop/CTsubject-3.csv,legacy,Kafkaesque Koffka,3.2.5,0,h,NA,s,NA,NA,h,516,NA,25984,NA,NA,516,2,legacy,1024,2,48000,-16,experiment,SSHSS,3,odd,30615,NA,NA,116896,118110,39983,4594,NA,NA,117996,4609,NA,NA,118110,118628,117988,Flanker Task,47,29340,48,yes,1024
congruent,97.95918367,97.95918367,609.3673469,609.3673469,black,legacy,legacy,legacy,0,uniform,1,undefined,1,h,0,0,0,48,48,48,0,48,0,48,0,0,0,48,48,48,Sun Sep  9 21:50:03 2018,1500,The main experiment item,yes,FlankerTask.osexp,/Users/hannahrae97/Desktop,no,mono,no,18,no,white,no,yes,768,legacy,48,48,/Users/hannahrae97/Desktop/CTsubject-3.csv,legacy,Kafkaesque Koffka,3.2.5,0,h,NA,s,NA,NA,h,519,NA,25984,NA,NA,519,2,legacy,1024,2,48000,-16,experiment,HHHHH,3,odd,30615,NA,NA,118642,119854,39983,4594,NA,NA,119742,4609,NA,NA,119854,120375,119734,Flanker Task,48,29859,49,yes,1024
Congruent,98,98,605.48,605.48,black,legacy,legacy,legacy,0,uniform,1,undefined,1,s,0,0,0,49,49,49,0,49,0,49,0,0,0,49,49,49,Sun Sep  9 21:50:03 2018,1500,The main experiment item,yes,FlankerTask.osexp,/Users/hannahrae97/Desktop,no,mono,no,18,no,white,no,yes,768,legacy,49,49,/Users/hannahrae97/Desktop/CTsubject-3.csv,legacy,Kafkaesque Koffka,3.2.5,0,s,NA,s,NA,NA,s,415,NA,25984,NA,NA,415,2,legacy,1024,2,48000,-16,experiment,SSSSS,3,odd,30615,NA,NA,120387,121598,39983,4594,NA,NA,121491,4609,NA,NA,121599,122016,121482,Flanker Task,49,30274,50,yes,1024
congruent,98.03921569,98.03921569,603.4901961,603.4901961,black,legacy,legacy,legacy,0,uniform,1,undefined,1,h,0,0,0,50,50,50,0,50,0,50,0,0,0,50,50,50,Sun Sep  9 21:50:03 2018,1500,The main experiment item,yes,FlankerTask.osexp,/Users/hannahrae97/Desktop,no,mono,no,18,no,white,no,yes,768,legacy,50,50,/Users/hannahrae97/Desktop/CTsubject-3.csv,legacy,Kafkaesque Koffka,3.2.5,0,h,NA,s,NA,NA,h,504,NA,25984,NA,NA,504,2,legacy,1024,2,48000,-16,experiment,HHHHH,3,odd,30615,NA,NA,122029,123240,39983,4594,NA,NA,123132,4609,NA,NA,123240,123746,123124,Flanker Task,50,30778,51,yes,1024
congruent,98.07692308,98.07692308,600.5384615,600.5384615,black,legacy,legacy,legacy,0,uniform,1,undefined,1,h,0,0,0,51,51,51,0,51,0,51,0,0,0,51,51,51,Sun Sep  9 21:50:03 2018,1500,The main experiment item,yes,FlankerTask.osexp,/Users/hannahrae97/Desktop,no,mono,no,18,no,white,no,yes,768,legacy,51,51,/Users/hannahrae97/Desktop/CTsubject-3.csv,legacy,Kafkaesque Koffka,3.2.5,0,h,NA,s,NA,NA,h,450,NA,25984,NA,NA,450,2,legacy,1024,2,48000,-16,experiment,HHHHH,3,odd,30615,NA,NA,123758,124981,39983,4594,NA,NA,124868,4609,NA,NA,124982,125434,124859,Flanker Task,51,31228,52,yes,1024
congruent,98.11320755,98.11320755,598.245283,598.245283,black,legacy,legacy,legacy,0,uniform,1,undefined,1,h,0,0,0,52,52,52,0,52,0,52,0,0,0,52,52,52,Sun Sep  9 21:50:03 2018,1500,The main experiment item,yes,FlankerTask.osexp,/Users/hannahrae97/Desktop,no,mono,no,18,no,white,no,yes,768,legacy,52,52,/Users/hannahrae97/Desktop/CTsubject-3.csv,legacy,Kafkaesque Koffka,3.2.5,0,h,NA,s,NA,NA,h,479,NA,25984,NA,NA,479,2,legacy,1024,2,48000,-16,experiment,HHHHH,3,odd,30615,NA,NA,125447,126660,39983,4594,NA,NA,126545,4609,NA,NA,126660,127141,126537,Flanker Task,52,31707,53,yes,1024
incongruent,98.14814815,98.14814815,600.2962963,600.2962963,black,legacy,legacy,legacy,0,uniform,1,undefined,1,h,0,0,0,53,53,53,0,53,0,53,0,0,0,53,53,53,Sun Sep  9 21:50:03 2018,1500,The main experiment item,yes,FlankerTask.osexp,/Users/hannahrae97/Desktop,no,mono,no,18,no,white,no,yes,768,legacy,53,53,/Users/hannahrae97/Desktop/CTsubject-3.csv,legacy,Kafkaesque Koffka,3.2.5,0,h,NA,s,NA,NA,h,709,NA,25984,NA,NA,709,2,legacy,1024,2,48000,-16,experiment,SSHSS,3,odd,30615,NA,NA,127153,128366,39983,4594,NA,NA,128254,4609,NA,NA,128367,129078,128245,Flanker Task,53,32416,54,yes,1024
congruent,98.18181818,98.18181818,597.0545455,597.0545455,black,legacy,legacy,legacy,0,uniform,1,undefined,1,h,0,0,0,54,54,54,0,54,0,54,0,0,0,54,54,54,Sun Sep  9 21:50:03 2018,1500,The main experiment item,yes,FlankerTask.osexp,/Users/hannahrae97/Desktop,no,mono,no,18,no,white,no,yes,768,legacy,54,54,/Users/hannahrae97/Desktop/CTsubject-3.csv,legacy,Kafkaesque Koffka,3.2.5,0,h,NA,s,NA,NA,h,422,NA,25984,NA,NA,422,2,legacy,1024,2,48000,-16,experiment,HHHHH,3,odd,30615,NA,NA,129089,130295,39983,4594,NA,NA,130187,4609,NA,NA,130295,130719,130179,Flanker Task,54,32838,55,yes,1024
incongruent,98.21428571,98.21428571,596.1607143,596.1607143,black,legacy,legacy,legacy,0,uniform,1,undefined,1,h,0,0,0,55,55,55,0,55,0,55,0,0,0,55,55,55,Sun Sep  9 21:50:03 2018,1500,The main experiment item,yes,FlankerTask.osexp,/Users/hannahrae97/Desktop,no,mono,no,18,no,white,no,yes,768,legacy,55,55,/Users/hannahrae97/Desktop/CTsubject-3.csv,legacy,Kafkaesque Koffka,3.2.5,0,h,NA,s,NA,NA,h,547,NA,25984,NA,NA,547,2,legacy,1024,2,48000,-16,experiment,SSHSS,3,odd,30615,NA,NA,130730,131954,39983,4594,NA,NA,131841,4609,NA,NA,131954,132502,131831,Flanker Task,55,33385,56,yes,1024
incongruent,98.24561404,98.24561404,595,595,black,legacy,legacy,legacy,0,uniform,1,undefined,1,s,0,0,0,56,56,56,0,56,0,56,0,0,0,56,56,56,Sun Sep  9 21:50:03 2018,1500,The main experiment item,yes,FlankerTask.osexp,/Users/hannahrae97/Desktop,no,mono,no,18,no,white,no,yes,768,legacy,56,56,/Users/hannahrae97/Desktop/CTsubject-3.csv,legacy,Kafkaesque Koffka,3.2.5,0,s,NA,s,NA,NA,s,530,NA,25984,NA,NA,530,2,legacy,1024,2,48000,-16,experiment,HHSHH,3,odd,30615,NA,NA,132513,133729,39983,4594,NA,NA,133620,4609,NA,NA,133729,134260,133610,Flanker Task,56,33915,57,yes,1024
Congruent,98.27586207,98.27586207,591.8103448,591.8103448,black,legacy,legacy,legacy,0,uniform,1,undefined,1,s,0,0,0,57,57,57,0,57,0,57,0,0,0,57,57,57,Sun Sep  9 21:50:03 2018,1500,The main experiment item,yes,FlankerTask.osexp,/Users/hannahrae97/Desktop,no,mono,no,18,no,white,no,yes,768,legacy,57,57,/Users/hannahrae97/Desktop/CTsubject-3.csv,legacy,Kafkaesque Koffka,3.2.5,0,s,NA,s,NA,NA,s,410,NA,25984,NA,NA,410,2,legacy,1024,2,48000,-16,experiment,SSSSS,3,odd,30615,NA,NA,134273,135489,39983,4594,NA,NA,135380,4609,NA,NA,135489,135900,135372,Flanker Task,57,34325,58,yes,1024
incongruent,98.30508475,98.30508475,589.9152542,589.9152542,black,legacy,legacy,legacy,0,uniform,1,undefined,1,h,0,0,0,58,58,58,0,58,0,58,0,0,0,58,58,58,Sun Sep  9 21:50:03 2018,1500,The main experiment item,yes,FlankerTask.osexp,/Users/hannahrae97/Desktop,no,mono,no,18,no,white,no,yes,768,legacy,58,58,/Users/hannahrae97/Desktop/CTsubject-3.csv,legacy,Kafkaesque Koffka,3.2.5,0,h,NA,s,NA,NA,h,480,NA,25984,NA,NA,480,2,legacy,1024,2,48000,-16,experiment,SSHSS,3,odd,30615,NA,NA,135912,137119,39983,4594,NA,NA,137010,4609,NA,NA,137120,137601,137002,Flanker Task,58,34805,59,yes,1024
Congruent,98.33333333,98.33333333,585.9166667,585.9166667,black,legacy,legacy,legacy,0,uniform,1,undefined,1,s,0,0,0,59,59,59,0,59,0,59,0,0,0,59,59,59,Sun Sep  9 21:50:03 2018,1500,The main experiment item,yes,FlankerTask.osexp,/Users/hannahrae97/Desktop,no,mono,no,18,no,white,no,yes,768,legacy,59,59,/Users/hannahrae97/Desktop/CTsubject-3.csv,legacy,Kafkaesque Koffka,3.2.5,0,s,NA,s,NA,NA,s,350,NA,25984,NA,NA,350,2,legacy,1024,2,48000,-16,experiment,SSSSS,3,odd,30615,NA,NA,137613,138822,39983,4594,NA,NA,138711,4609,NA,NA,138822,139174,138703,Flanker Task,59,35155,60,yes,1024
incongruent,98.36065574,98.36065574,581,581,black,legacy,legacy,legacy,0,uniform,1,undefined,1,h,0,0,0,60,60,60,0,60,0,60,0,0,0,60,60,60,Sun Sep  9 21:50:03 2018,1500,The main experiment item,yes,FlankerTask.osexp,/Users/hannahrae97/Desktop,no,mono,no,18,no,white,no,yes,768,legacy,60,60,/Users/hannahrae97/Desktop/CTsubject-3.csv,legacy,Kafkaesque Koffka,3.2.5,0,h,NA,s,NA,NA,h,286,NA,25984,NA,NA,286,2,legacy,1024,2,48000,-16,experiment,SSHSS,3,odd,30615,NA,NA,139186,140404,39983,4594,NA,NA,140290,4609,NA,NA,140404,140691,140282,Flanker Task,60,35441,61,yes,1024
Congruent,98.38709677,98.38709677,578.3709677,578.3709677,black,legacy,legacy,legacy,0,uniform,1,undefined,1,s,0,0,0,61,61,61,0,61,0,61,0,0,0,61,61,61,Sun Sep  9 21:50:03 2018,1500,The main experiment item,yes,FlankerTask.osexp,/Users/hannahrae97/Desktop,no,mono,no,18,no,white,no,yes,768,legacy,61,61,/Users/hannahrae97/Desktop/CTsubject-3.csv,legacy,Kafkaesque Koffka,3.2.5,0,s,NA,s,NA,NA,s,418,NA,25984,NA,NA,418,2,legacy,1024,2,48000,-16,experiment,SSSSS,3,odd,30615,NA,NA,140703,141920,39983,4594,NA,NA,141811,4609,NA,NA,141920,142339,141798,Flanker Task,61,35859,62,yes,1024
incongruent,98.41269841,98.41269841,578.3015873,578.3015873,black,legacy,legacy,legacy,0,uniform,1,undefined,1,s,0,0,0,62,62,62,0,62,0,62,0,0,0,62,62,62,Sun Sep  9 21:50:03 2018,1500,The main experiment item,yes,FlankerTask.osexp,/Users/hannahrae97/Desktop,no,mono,no,18,no,white,no,yes,768,legacy,62,62,/Users/hannahrae97/Desktop/CTsubject-3.csv,legacy,Kafkaesque Koffka,3.2.5,0,s,NA,s,NA,NA,s,574,NA,25984,NA,NA,574,2,legacy,1024,2,48000,-16,experiment,HHSHH,3,odd,30615,NA,NA,142352,143572,39983,4594,NA,NA,143461,4609,NA,NA,143572,144147,143453,Flanker Task,62,36433,63,yes,1024
congruent,98.4375,98.4375,575.75,575.75,black,legacy,legacy,legacy,0,uniform,1,undefined,1,h,0,0,0,63,63,63,0,63,0,63,0,0,0,63,63,63,Sun Sep  9 21:50:03 2018,1500,The main experiment item,yes,FlankerTask.osexp,/Users/hannahrae97/Desktop,no,mono,no,18,no,white,no,yes,768,legacy,63,63,/Users/hannahrae97/Desktop/CTsubject-3.csv,legacy,Kafkaesque Koffka,3.2.5,0,h,NA,s,NA,NA,h,415,NA,25984,NA,NA,415,2,legacy,1024,2,48000,-16,experiment,HHHHH,3,odd,30615,NA,NA,144159,145378,39983,4594,NA,NA,145268,4609,NA,NA,145379,145795,145261,Flanker Task,63,36848,64,yes,1024
incongruent,98.46153846,98.46153846,576.5538462,576.5538462,black,legacy,legacy,legacy,0,uniform,1,undefined,1,s,0,0,0,64,64,64,0,64,0,64,0,0,0,64,64,64,Sun Sep  9 21:50:03 2018,1500,The main experiment item,yes,FlankerTask.osexp,/Users/hannahrae97/Desktop,no,mono,no,18,no,white,no,yes,768,legacy,64,64,/Users/hannahrae97/Desktop/CTsubject-3.csv,legacy,Kafkaesque Koffka,3.2.5,0,s,NA,s,NA,NA,s,628,NA,25984,NA,NA,628,2,legacy,1024,2,48000,-16,experiment,HHSHH,3,odd,30615,NA,NA,145807,147020,39983,4594,NA,NA,146910,4609,NA,NA,147020,147649,146900,Flanker Task,64,37476,65,yes,1024
incongruent,98.48484848,98.48484848,575.1363636,575.1363636,black,legacy,legacy,legacy,0,uniform,1,undefined,1,h,0,0,0,65,65,65,0,65,0,65,0,0,0,65,65,65,Sun Sep  9 21:50:03 2018,1500,The main experiment item,yes,FlankerTask.osexp,/Users/hannahrae97/Desktop,no,mono,no,18,no,white,no,yes,768,legacy,65,65,/Users/hannahrae97/Desktop/CTsubject-3.csv,legacy,Kafkaesque Koffka,3.2.5,0,h,NA,s,NA,NA,h,483,NA,25984,NA,NA,483,2,legacy,1024,2,48000,-16,experiment,SSHSS,3,odd,30615,NA,NA,147662,148873,39983,4594,NA,NA,148764,4609,NA,NA,148873,149357,148756,Flanker Task,65,37959,66,yes,1024
Congruent,98.50746269,98.50746269,572.1940299,572.1940299,black,legacy,legacy,legacy,0,uniform,1,undefined,1,s,0,0,0,66,66,66,0,66,0,66,0,0,0,66,66,66,Sun Sep  9 21:50:03 2018,1500,The main experiment item,yes,FlankerTask.osexp,/Users/hannahrae97/Desktop,no,mono,no,18,no,white,no,yes,768,legacy,66,66,/Users/hannahrae97/Desktop/CTsubject-3.csv,legacy,Kafkaesque Koffka,3.2.5,0,s,NA,s,NA,NA,s,378,NA,25984,NA,NA,378,2,legacy,1024,2,48000,-16,experiment,SSSSS,3,odd,30615,NA,NA,149369,150587,39983,4594,NA,NA,150478,4609,NA,NA,150588,150967,150466,Flanker Task,66,38337,67,yes,1024
incongruent,98.52941176,98.52941176,570.9705882,570.9705882,black,legacy,legacy,legacy,0,uniform,1,undefined,1,s,0,0,0,67,67,67,0,67,0,67,0,0,0,67,67,67,Sun Sep  9 21:50:03 2018,1500,The main experiment item,yes,FlankerTask.osexp,/Users/hannahrae97/Desktop,no,mono,no,18,no,white,no,yes,768,legacy,67,67,/Users/hannahrae97/Desktop/CTsubject-3.csv,legacy,Kafkaesque Koffka,3.2.5,0,s,NA,s,NA,NA,s,489,NA,25984,NA,NA,489,2,legacy,1024,2,48000,-16,experiment,HHSHH,3,odd,30615,NA,NA,150979,152197,39983,4594,NA,NA,152087,4609,NA,NA,152197,152687,152078,Flanker Task,67,38826,68,yes,1024
congruent,98.55072464,98.55072464,569.8405797,569.8405797,black,legacy,legacy,legacy,0,uniform,1,undefined,1,h,0,0,0,68,68,68,0,68,0,68,0,0,0,68,68,68,Sun Sep  9 21:50:03 2018,1500,The main experiment item,yes,FlankerTask.osexp,/Users/hannahrae97/Desktop,no,mono,no,18,no,white,no,yes,768,legacy,68,68,/Users/hannahrae97/Desktop/CTsubject-3.csv,legacy,Kafkaesque Koffka,3.2.5,0,h,NA,s,NA,NA,h,493,NA,25984,NA,NA,493,2,legacy,1024,2,48000,-16,experiment,HHHHH,3,odd,30615,NA,NA,152699,153909,39983,4594,NA,NA,153800,4609,NA,NA,153910,154404,153792,Flanker Task,68,39319,69,yes,1024
congruent,98.57142857,98.57142857,568.7,568.7,black,legacy,legacy,legacy,0,uniform,1,undefined,1,h,0,0,0,69,69,69,0,69,0,69,0,0,0,69,69,69,Sun Sep  9 21:50:03 2018,1500,The main experiment item,yes,FlankerTask.osexp,/Users/hannahrae97/Desktop,no,mono,no,18,no,white,no,yes,768,legacy,69,69,/Users/hannahrae97/Desktop/CTsubject-3.csv,legacy,Kafkaesque Koffka,3.2.5,0,h,NA,s,NA,NA,h,490,NA,25984,NA,NA,490,2,legacy,1024,2,48000,-16,experiment,HHHHH,3,odd,30615,NA,NA,154415,155629,39983,4594,NA,NA,155515,4609,NA,NA,155629,156120,155506,Flanker Task,69,39809,70,yes,1024
Congruent,98.5915493,98.5915493,567.2816901,567.2816901,black,legacy,legacy,legacy,0,uniform,1,undefined,1,s,0,0,0,70,70,70,0,70,0,70,0,0,0,70,70,70,Sun Sep  9 21:50:03 2018,1500,The main experiment item,yes,FlankerTask.osexp,/Users/hannahrae97/Desktop,no,mono,no,18,no,white,no,yes,768,legacy,70,70,/Users/hannahrae97/Desktop/CTsubject-3.csv,legacy,Kafkaesque Koffka,3.2.5,0,s,NA,s,NA,NA,s,468,NA,25984,NA,NA,468,2,legacy,1024,2,48000,-16,experiment,SSSSS,3,odd,30615,NA,NA,156132,157352,39983,4594,NA,NA,157238,4609,NA,NA,157353,157823,157229,Flanker Task,70,40277,71,yes,1024
incongruent,98.61111111,98.61111111,566.0972222,566.0972222,black,legacy,legacy,legacy,0,uniform,1,undefined,1,h,0,0,0,71,71,71,0,71,0,71,0,0,0,71,71,71,Sun Sep  9 21:50:03 2018,1500,The main experiment item,yes,FlankerTask.osexp,/Users/hannahrae97/Desktop,no,mono,no,18,no,white,no,yes,768,legacy,71,71,/Users/hannahrae97/Desktop/CTsubject-3.csv,legacy,Kafkaesque Koffka,3.2.5,0,h,NA,s,NA,NA,h,482,NA,25984,NA,NA,482,2,legacy,1024,2,48000,-16,experiment,SSHSS,3,odd,30615,NA,NA,157838,159053,39983,4594,NA,NA,158945,4609,NA,NA,159053,159536,158937,Flanker Task,71,40759,72,yes,1024
incongruent,98.63013699,98.63013699,565.9589041,565.9589041,black,legacy,legacy,legacy,0,uniform,1,undefined,1,s,0,0,0,72,72,72,0,72,0,72,0,0,0,72,72,72,Sun Sep  9 21:50:03 2018,1500,The main experiment item,yes,FlankerTask.osexp,/Users/hannahrae97/Desktop,no,mono,no,18,no,white,no,yes,768,legacy,72,72,/Users/hannahrae97/Desktop/CTsubject-3.csv,legacy,Kafkaesque Koffka,3.2.5,0,s,NA,s,NA,NA,s,556,NA,25984,NA,NA,556,2,legacy,1024,2,48000,-16,experiment,HHSHH,3,odd,30615,NA,NA,159549,160766,39983,4594,NA,NA,160655,4609,NA,NA,160766,161323,160647,Flanker Task,72,41315,73,yes,1024
congruent,98.64864865,98.64864865,565.8783784,565.8783784,black,legacy,legacy,legacy,0,uniform,1,undefined,1,h,0,0,0,73,73,73,0,73,0,73,0,0,0,73,73,73,Sun Sep  9 21:50:03 2018,1500,The main experiment item,yes,FlankerTask.osexp,/Users/hannahrae97/Desktop,no,mono,no,18,no,white,no,yes,768,legacy,73,73,/Users/hannahrae97/Desktop/CTsubject-3.csv,legacy,Kafkaesque Koffka,3.2.5,0,h,NA,s,NA,NA,h,560,NA,25984,NA,NA,560,2,legacy,1024,2,48000,-16,experiment,HHHHH,3,odd,30615,NA,NA,161334,162550,39983,4594,NA,NA,162437,4609,NA,NA,162550,163111,162428,Flanker Task,73,41875,74,yes,1024
incongruent,98.66666667,98.66666667,565.9066667,565.9066667,black,legacy,legacy,legacy,0,uniform,1,undefined,1,s,0,0,0,74,74,74,0,74,0,74,0,0,0,74,74,74,Sun Sep  9 21:50:03 2018,1500,The main experiment item,yes,FlankerTask.osexp,/Users/hannahrae97/Desktop,no,mono,no,18,no,white,no,yes,768,legacy,74,74,/Users/hannahrae97/Desktop/CTsubject-3.csv,legacy,Kafkaesque Koffka,3.2.5,0,s,NA,s,NA,NA,s,568,NA,25984,NA,NA,568,2,legacy,1024,2,48000,-16,experiment,HHSHH,3,odd,30615,NA,NA,163122,164335,39983,4594,NA,NA,164224,4609,NA,NA,164335,164904,164215,Flanker Task,74,42443,75,yes,1024
Congruent,98.68421053,98.68421053,565.6710526,565.6710526,black,legacy,legacy,legacy,0,uniform,1,undefined,1,s,0,0,0,75,75,75,0,75,0,75,0,0,0,75,75,75,Sun Sep  9 21:50:03 2018,1500,The main experiment item,yes,FlankerTask.osexp,/Users/hannahrae97/Desktop,no,mono,no,18,no,white,no,yes,768,legacy,75,75,/Users/hannahrae97/Desktop/CTsubject-3.csv,legacy,Kafkaesque Koffka,3.2.5,0,s,NA,s,NA,NA,s,548,NA,25984,NA,NA,548,2,legacy,1024,2,48000,-16,experiment,SSSSS,3,odd,30615,NA,NA,164918,166135,39983,4594,NA,NA,166022,4609,NA,NA,166135,166685,166014,Flanker Task,75,42991,76,yes,1024
incongruent,98.7012987,98.7012987,564.5844156,564.5844156,black,legacy,legacy,legacy,0,uniform,1,undefined,1,h,0,0,0,76,76,76,0,76,0,76,0,0,0,76,76,76,Sun Sep  9 21:50:03 2018,1500,The main experiment item,yes,FlankerTask.osexp,/Users/hannahrae97/Desktop,no,mono,no,18,no,white,no,yes,768,legacy,76,76,/Users/hannahrae97/Desktop/CTsubject-3.csv,legacy,Kafkaesque Koffka,3.2.5,0,h,NA,s,NA,NA,h,482,NA,25984,NA,NA,482,2,legacy,1024,2,48000,-16,experiment,SSHSS,3,odd,30615,NA,NA,166697,167917,39983,4594,NA,NA,167805,4609,NA,NA,167917,168401,167796,Flanker Task,76,43473,77,yes,1024
incongruent,98.71794872,98.71794872,567.7948718,567.7948718,black,legacy,legacy,legacy,0,uniform,1,undefined,1,s,0,0,0,77,77,77,0,77,0,77,0,0,0,77,77,77,Sun Sep  9 21:50:03 2018,1500,The main experiment item,yes,FlankerTask.osexp,/Users/hannahrae97/Desktop,no,mono,no,18,no,white,no,yes,768,legacy,77,77,/Users/hannahrae97/Desktop/CTsubject-3.csv,legacy,Kafkaesque Koffka,3.2.5,0,s,NA,s,NA,NA,s,815,NA,25984,NA,NA,815,2,legacy,1024,2,48000,-16,experiment,HHSHH,3,odd,30615,NA,NA,168413,169637,39983,4594,NA,NA,169525,4609,NA,NA,169637,170453,169515,Flanker Task,77,44288,78,yes,1024
incongruent,98.73417722,98.73417722,566.556962,566.556962,black,legacy,legacy,legacy,0,uniform,1,undefined,1,h,0,0,0,78,78,78,0,78,0,78,0,0,0,78,78,78,Sun Sep  9 21:50:03 2018,1500,The main experiment item,yes,FlankerTask.osexp,/Users/hannahrae97/Desktop,no,mono,no,18,no,white,no,yes,768,legacy,78,78,/Users/hannahrae97/Desktop/CTsubject-3.csv,legacy,Kafkaesque Koffka,3.2.5,0,h,NA,s,NA,NA,h,470,NA,25984,NA,NA,470,2,legacy,1024,2,48000,-16,experiment,SSHSS,3,odd,30615,NA,NA,170469,171685,39983,4594,NA,NA,171571,4609,NA,NA,171686,172157,171563,Flanker Task,78,44758,79,yes,1024
incongruent,98.75,98.75,566.2,566.2,black,legacy,legacy,legacy,0,uniform,1,undefined,1,h,0,0,0,79,79,79,0,79,0,79,0,0,0,79,79,79,Sun Sep  9 21:50:03 2018,1500,The main experiment item,yes,FlankerTask.osexp,/Users/hannahrae97/Desktop,no,mono,no,18,no,white,no,yes,768,legacy,79,79,/Users/hannahrae97/Desktop/CTsubject-3.csv,legacy,Kafkaesque Koffka,3.2.5,0,h,NA,s,NA,NA,h,538,NA,25984,NA,NA,538,2,legacy,1024,2,48000,-16,experiment,SSHSS,3,odd,30615,NA,NA,172170,173394,39983,4594,NA,NA,173280,4609,NA,NA,173395,173934,173270,Flanker Task,79,45296,80,yes,1024
Congruent,98.7654321,98.7654321,566.8148148,566.8148148,black,legacy,legacy,legacy,0,uniform,1,undefined,1,s,0,0,0,80,80,80,0,80,0,80,0,0,0,80,80,80,Sun Sep  9 21:50:03 2018,600,The main experiment item,yes,FlankerTask.osexp,/Users/hannahrae97/Desktop,no,mono,no,18,no,white,no,yes,768,legacy,0,79,/Users/hannahrae97/Desktop/CTsubject-3.csv,legacy,Kafkaesque Koffka,3.2.5,0,s,NA,s,h,NA,s,616,NA,25984,14881,NA,616,2,legacy,1024,2,48000,-16,experiment,SSSSS,3,odd,30615,189858,NA,173946,190060,39983,4594,NA,NA,189951,4609,174975,NA,190060,190677,189943,Flanker Task,80,45912,81,yes,1024
congruent,98.7804878,98.7804878,565.2804878,565.2804878,black,legacy,legacy,legacy,0,uniform,1,undefined,1,h,0,0,0,81,81,81,0,81,0,81,0,0,0,81,81,81,Sun Sep  9 21:50:03 2018,600,The main experiment item,yes,FlankerTask.osexp,/Users/hannahrae97/Desktop,no,mono,no,18,no,white,no,yes,768,legacy,1,79,/Users/hannahrae97/Desktop/CTsubject-3.csv,legacy,Kafkaesque Koffka,3.2.5,0,h,NA,s,h,NA,h,441,NA,25984,14881,NA,441,2,legacy,1024,2,48000,-16,experiment,HHHHH,3,odd,30615,189858,NA,191198,192415,39983,4594,190689,NA,192301,4609,174975,NA,192415,192857,192293,Flanker Task,81,46353,82,yes,1024
incongruent,98.79518072,98.79518072,563.6024096,563.6024096,black,legacy,legacy,legacy,0,uniform,1,undefined,1,s,0,0,0,82,82,82,0,82,0,82,0,0,0,82,82,82,Sun Sep  9 21:50:03 2018,600,The main experiment item,yes,FlankerTask.osexp,/Users/hannahrae97/Desktop,no,mono,no,18,no,white,no,yes,768,legacy,2,79,/Users/hannahrae97/Desktop/CTsubject-3.csv,legacy,Kafkaesque Koffka,3.2.5,0,s,NA,s,h,NA,s,426,NA,25984,14881,NA,426,2,legacy,1024,2,48000,-16,experiment,HHSHH,3,odd,30615,189858,NA,192869,194081,39983,4594,190689,NA,193972,4609,174975,NA,194081,194509,193963,Flanker Task,82,46779,83,yes,1024
incongruent,97.61904762,97.61904762,561.1666667,561.1666667,black,legacy,legacy,legacy,0,uniform,0,undefined,0,h,0,0,0,83,83,83,0,83,0,83,0,0,0,83,83,83,Sun Sep  9 21:50:03 2018,600,The main experiment item,yes,FlankerTask.osexp,/Users/hannahrae97/Desktop,no,mono,no,18,no,white,no,yes,768,legacy,3,79,/Users/hannahrae97/Desktop/CTsubject-3.csv,legacy,Kafkaesque Koffka,3.2.5,0,s,NA,s,h,NA,s,359,NA,25984,14881,NA,359,2,legacy,1024,2,48000,-16,experiment,SSHSS,3,odd,30615,189858,NA,194520,195735,39983,4594,190689,NA,195627,4609,174975,NA,195736,196096,195619,Flanker Task,82,47138,84,yes,1024
Congruent,97.64705882,97.64705882,560.8117647,560.8117647,black,legacy,legacy,legacy,0,uniform,1,undefined,1,s,0,0,0,84,84,84,0,84,0,84,0,0,0,84,84,84,Sun Sep  9 21:50:03 2018,600,The main experiment item,yes,FlankerTask.osexp,/Users/hannahrae97/Desktop,no,mono,no,18,no,white,no,yes,768,legacy,4,79,/Users/hannahrae97/Desktop/CTsubject-3.csv,legacy,Kafkaesque Koffka,3.2.5,0,s,NA,s,h,NA,s,531,NA,25984,14881,NA,531,2,legacy,1024,2,48000,-16,experiment,SSSSS,3,odd,30615,189858,NA,196618,197839,196109,4594,190689,NA,197725,4609,174975,NA,197839,198372,197716,Flanker Task,83,47669,85,yes,1024
congruent,97.6744186,97.6744186,559.1395349,559.1395349,black,legacy,legacy,legacy,0,uniform,1,undefined,1,h,0,0,0,85,85,85,0,85,0,85,0,0,0,85,85,85,Sun Sep  9 21:50:03 2018,600,The main experiment item,yes,FlankerTask.osexp,/Users/hannahrae97/Desktop,no,mono,no,18,no,white,no,yes,768,legacy,5,79,/Users/hannahrae97/Desktop/CTsubject-3.csv,legacy,Kafkaesque Koffka,3.2.5,0,h,NA,s,h,NA,h,417,NA,25984,14881,NA,417,2,legacy,1024,2,48000,-16,experiment,HHHHH,3,odd,30615,189858,NA,198385,199595,196109,4594,190689,NA,199483,4609,174975,NA,199595,200014,199475,Flanker Task,84,48086,86,yes,1024
Congruent,97.70114943,97.70114943,558.4022989,558.4022989,black,legacy,legacy,legacy,0,uniform,1,undefined,1,s,0,0,0,86,86,86,0,86,0,86,0,0,0,86,86,86,Sun Sep  9 21:50:03 2018,600,The main experiment item,yes,FlankerTask.osexp,/Users/hannahrae97/Desktop,no,mono,no,18,no,white,no,yes,768,legacy,6,79,/Users/hannahrae97/Desktop/CTsubject-3.csv,legacy,Kafkaesque Koffka,3.2.5,0,s,NA,s,h,NA,s,495,NA,25984,14881,NA,495,2,legacy,1024,2,48000,-16,experiment,SSSSS,3,odd,30615,189858,NA,200026,201242,196109,4594,190689,NA,201133,4609,174975,NA,201242,201739,201125,Flanker Task,85,48581,87,yes,1024
Congruent,97.72727273,97.72727273,557.1136364,557.1136364,black,legacy,legacy,legacy,0,uniform,1,undefined,1,s,0,0,0,87,87,87,0,87,0,87,0,0,0,87,87,87,Sun Sep  9 21:50:03 2018,600,The main experiment item,yes,FlankerTask.osexp,/Users/hannahrae97/Desktop,no,mono,no,18,no,white,no,yes,768,legacy,7,79,/Users/hannahrae97/Desktop/CTsubject-3.csv,legacy,Kafkaesque Koffka,3.2.5,0,s,NA,s,h,NA,s,445,NA,25984,14881,NA,445,2,legacy,1024,2,48000,-16,experiment,SSSSS,3,odd,30615,189858,NA,201752,202966,196109,4594,190689,NA,202858,4609,174975,NA,202967,203414,202849,Flanker Task,86,49026,88,yes,1024
Congruent,97.75280899,97.75280899,554.741573,554.741573,black,legacy,legacy,legacy,0,uniform,1,undefined,1,s,0,0,0,88,88,88,0,88,0,88,0,0,0,88,88,88,Sun Sep  9 21:50:03 2018,600,The main experiment item,yes,FlankerTask.osexp,/Users/hannahrae97/Desktop,no,mono,no,18,no,white,no,yes,768,legacy,8,79,/Users/hannahrae97/Desktop/CTsubject-3.csv,legacy,Kafkaesque Koffka,3.2.5,0,s,NA,s,h,NA,s,346,NA,25984,14881,NA,346,2,legacy,1024,2,48000,-16,experiment,SSSSS,3,odd,30615,189858,NA,203425,204646,196109,4594,190689,NA,204533,4609,174975,NA,204646,204994,204523,Flanker Task,87,49372,89,yes,1024
congruent,97.77777778,97.77777778,552.3333333,552.3333333,black,legacy,legacy,legacy,0,uniform,1,undefined,1,h,0,0,0,89,89,89,0,89,0,89,0,0,0,89,89,89,Sun Sep  9 21:50:03 2018,600,The main experiment item,yes,FlankerTask.osexp,/Users/hannahrae97/Desktop,no,mono,no,18,no,white,no,yes,768,legacy,9,79,/Users/hannahrae97/Desktop/CTsubject-3.csv,legacy,Kafkaesque Koffka,3.2.5,0,h,NA,s,h,NA,h,338,NA,25984,14881,NA,338,2,legacy,1024,2,48000,-16,experiment,HHHHH,3,odd,30615,189858,NA,205005,206222,196109,4594,190689,NA,206111,4609,174975,NA,206222,206563,206103,Flanker Task,88,49710,90,yes,1024
Congruent,97.8021978,97.8021978,551.4725275,551.4725275,black,legacy,legacy,legacy,0,uniform,1,undefined,1,s,0,0,0,90,90,90,0,90,0,90,0,0,0,90,90,90,Sun Sep  9 21:50:03 2018,600,The main experiment item,yes,FlankerTask.osexp,/Users/hannahrae97/Desktop,no,mono,no,18,no,white,no,yes,768,legacy,10,79,/Users/hannahrae97/Desktop/CTsubject-3.csv,legacy,Kafkaesque Koffka,3.2.5,0,s,NA,s,h,NA,s,474,NA,25984,14881,NA,474,2,legacy,1024,2,48000,-16,experiment,SSSSS,3,odd,30615,189858,NA,206576,207788,196109,4594,190689,NA,207678,4609,174975,NA,207789,208265,207668,Flanker Task,89,50184,91,yes,1024
incongruent,97.82608696,97.82608696,552.5108696,552.5108696,black,legacy,legacy,legacy,0,uniform,1,undefined,1,s,0,0,0,91,91,91,0,91,0,91,0,0,0,91,91,91,Sun Sep  9 21:50:03 2018,600,The main experiment item,yes,FlankerTask.osexp,/Users/hannahrae97/Desktop,no,mono,no,18,no,white,no,yes,768,legacy,11,79,/Users/hannahrae97/Desktop/CTsubject-3.csv,legacy,Kafkaesque Koffka,3.2.5,0,s,NA,s,h,NA,s,647,NA,25984,14881,NA,647,2,legacy,1024,2,48000,-16,experiment,HHSHH,3,odd,30615,189858,NA,208278,209492,196109,4594,190689,NA,209380,4609,174975,NA,209492,210141,209372,Flanker Task,90,50831,92,yes,1024
congruent,97.84946237,97.84946237,550.8064516,550.8064516,black,legacy,legacy,legacy,0,uniform,1,undefined,1,h,0,0,0,92,92,92,0,92,0,92,0,0,0,92,92,92,Sun Sep  9 21:50:03 2018,600,The main experiment item,yes,FlankerTask.osexp,/Users/hannahrae97/Desktop,no,mono,no,18,no,white,no,yes,768,legacy,12,79,/Users/hannahrae97/Desktop/CTsubject-3.csv,legacy,Kafkaesque Koffka,3.2.5,0,h,NA,s,h,NA,h,394,NA,25984,14881,NA,394,2,legacy,1024,2,48000,-16,experiment,HHHHH,3,odd,30615,189858,NA,210662,211881,196109,4594,210153,NA,211772,4609,174975,NA,211881,212277,211763,Flanker Task,91,51225,93,yes,1024
Congruent,97.87234043,97.87234043,549.7234043,549.7234043,black,legacy,legacy,legacy,0,uniform,1,undefined,1,s,0,0,0,93,93,93,0,93,0,93,0,0,0,93,93,93,Sun Sep  9 21:50:03 2018,600,The main experiment item,yes,FlankerTask.osexp,/Users/hannahrae97/Desktop,no,mono,no,18,no,white,no,yes,768,legacy,13,79,/Users/hannahrae97/Desktop/CTsubject-3.csv,legacy,Kafkaesque Koffka,3.2.5,0,s,NA,s,h,NA,s,449,NA,25984,14881,NA,449,2,legacy,1024,2,48000,-16,experiment,SSSSS,3,odd,30615,189858,NA,212288,213506,196109,4594,210153,NA,213397,4609,174975,NA,213506,213957,213389,Flanker Task,92,51674,94,yes,1024
incongruent,97.89473684,97.89473684,549.2842105,549.2842105,black,legacy,legacy,legacy,0,uniform,1,undefined,1,s,0,0,0,94,94,94,0,94,0,94,0,0,0,94,94,94,Sun Sep  9 21:50:03 2018,600,The main experiment item,yes,FlankerTask.osexp,/Users/hannahrae97/Desktop,no,mono,no,18,no,white,no,yes,768,legacy,14,79,/Users/hannahrae97/Desktop/CTsubject-3.csv,legacy,Kafkaesque Koffka,3.2.5,0,s,NA,s,h,NA,s,508,NA,25984,14881,NA,508,2,legacy,1024,2,48000,-16,experiment,HHSHH,3,odd,30615,189858,NA,213972,215184,196109,4594,210153,NA,215073,4609,174975,NA,215184,215694,215065,Flanker Task,93,52182,95,yes,1024
Congruent,97.91666667,97.91666667,548.9166667,548.9166667,black,legacy,legacy,legacy,0,uniform,1,undefined,1,s,0,0,0,95,95,95,0,95,0,95,0,0,0,95,95,95,Sun Sep  9 21:50:03 2018,600,The main experiment item,yes,FlankerTask.osexp,/Users/hannahrae97/Desktop,no,mono,no,18,no,white,no,yes,768,legacy,15,79,/Users/hannahrae97/Desktop/CTsubject-3.csv,legacy,Kafkaesque Koffka,3.2.5,0,s,NA,s,h,NA,s,514,NA,25984,14881,NA,514,2,legacy,1024,2,48000,-16,experiment,SSSSS,3,odd,30615,189858,NA,215706,216921,196109,4594,210153,NA,216810,4609,174975,NA,216921,217437,216801,Flanker Task,94,52696,96,yes,1024
congruent,97.93814433,97.93814433,548.8659794,548.8659794,black,legacy,legacy,legacy,0,uniform,1,undefined,1,h,0,0,0,96,96,96,0,96,0,96,0,0,0,96,96,96,Sun Sep  9 21:50:03 2018,600,The main experiment item,yes,FlankerTask.osexp,/Users/hannahrae97/Desktop,no,mono,no,18,no,white,no,yes,768,legacy,16,79,/Users/hannahrae97/Desktop/CTsubject-3.csv,legacy,Kafkaesque Koffka,3.2.5,0,h,NA,s,h,NA,h,544,NA,25984,14881,NA,544,2,legacy,1024,2,48000,-16,experiment,HHHHH,3,odd,30615,189858,NA,217449,218658,196109,4594,210153,NA,218547,4609,174975,NA,218658,219204,218539,Flanker Task,95,53240,97,yes,1024
congruent,97.95918367,97.95918367,547.3571429,547.3571429,black,legacy,legacy,legacy,0,uniform,1,undefined,1,h,0,0,0,97,97,97,0,97,0,97,0,0,0,97,97,97,Sun Sep  9 21:50:03 2018,600,The main experiment item,yes,FlankerTask.osexp,/Users/hannahrae97/Desktop,no,mono,no,18,no,white,no,yes,768,legacy,17,79,/Users/hannahrae97/Desktop/CTsubject-3.csv,legacy,Kafkaesque Koffka,3.2.5,0,h,NA,s,h,NA,h,401,NA,25984,14881,NA,401,2,legacy,1024,2,48000,-16,experiment,HHHHH,3,odd,30615,189858,NA,219215,220429,196109,4594,210153,NA,220322,4609,174975,NA,220430,220833,220314,Flanker Task,96,53641,98,yes,1024
incongruent,97.97979798,97.97979798,545.1111111,545.1111111,black,legacy,legacy,legacy,0,uniform,1,undefined,1,s,0,0,0,98,98,98,0,98,0,98,0,0,0,98,98,98,Sun Sep  9 21:50:03 2018,600,The main experiment item,yes,FlankerTask.osexp,/Users/hannahrae97/Desktop,no,mono,no,18,no,white,no,yes,768,legacy,18,79,/Users/hannahrae97/Desktop/CTsubject-3.csv,legacy,Kafkaesque Koffka,3.2.5,0,s,NA,s,h,NA,s,325,NA,25984,14881,NA,325,2,legacy,1024,2,48000,-16,experiment,HHSHH,3,odd,30615,189858,NA,220844,222065,196109,4594,210153,NA,221957,4609,174975,NA,222065,222392,221949,Flanker Task,97,53966,99,yes,1024
congruent,98,98,542.66,542.66,black,legacy,legacy,legacy,0,uniform,1,undefined,1,h,0,0,0,99,99,99,0,99,0,99,0,0,0,99,99,99,Sun Sep  9 21:50:03 2018,600,The main experiment item,yes,FlankerTask.osexp,/Users/hannahrae97/Desktop,no,mono,no,18,no,white,no,yes,768,legacy,19,79,/Users/hannahrae97/Desktop/CTsubject-3.csv,legacy,Kafkaesque Koffka,3.2.5,0,h,NA,s,h,NA,h,300,NA,25984,14881,NA,300,2,legacy,1024,2,48000,-16,experiment,HHHHH,3,odd,30615,189858,NA,222403,223623,196109,4594,210153,NA,223510,4609,174975,NA,223623,223925,223500,Flanker Task,98,54266,100,yes,1024
incongruent,98.01980198,98.01980198,540.5940594,540.5940594,black,legacy,legacy,legacy,0,uniform,1,undefined,1,s,0,0,0,100,100,100,0,100,0,100,0,0,0,100,100,100,Sun Sep  9 21:50:03 2018,600,The main experiment item,yes,FlankerTask.osexp,/Users/hannahrae97/Desktop,no,mono,no,18,no,white,no,yes,768,legacy,20,79,/Users/hannahrae97/Desktop/CTsubject-3.csv,legacy,Kafkaesque Koffka,3.2.5,0,s,NA,s,h,NA,s,334,NA,25984,14881,NA,334,2,legacy,1024,2,48000,-16,experiment,HHSHH,3,odd,30615,189858,NA,223942,225161,196109,4594,210153,NA,225050,4609,174975,NA,225161,225497,225041,Flanker Task,99,54600,101,yes,1024
incongruent,98.03921569,98.03921569,539.0294118,539.0294118,black,legacy,legacy,legacy,0,uniform,1,undefined,1,h,0,0,0,101,101,101,0,101,0,101,0,0,0,101,101,101,Sun Sep  9 21:50:03 2018,600,The main experiment item,yes,FlankerTask.osexp,/Users/hannahrae97/Desktop,no,mono,no,18,no,white,no,yes,768,legacy,21,79,/Users/hannahrae97/Desktop/CTsubject-3.csv,legacy,Kafkaesque Koffka,3.2.5,0,h,NA,s,h,NA,h,381,NA,25984,14881,NA,381,2,legacy,1024,2,48000,-16,experiment,SSHSS,3,odd,30615,189858,NA,225510,226723,196109,4594,210153,NA,226611,4609,174975,NA,226723,227106,226603,Flanker Task,100,54981,102,yes,1024
Congruent,98.05825243,98.05825243,537.5048544,537.5048544,black,legacy,legacy,legacy,0,uniform,1,undefined,1,s,0,0,0,102,102,102,0,102,0,102,0,0,0,102,102,102,Sun Sep  9 21:50:03 2018,600,The main experiment item,yes,FlankerTask.osexp,/Users/hannahrae97/Desktop,no,mono,no,18,no,white,no,yes,768,legacy,22,79,/Users/hannahrae97/Desktop/CTsubject-3.csv,legacy,Kafkaesque Koffka,3.2.5,0,s,NA,s,h,NA,s,382,NA,25984,14881,NA,382,2,legacy,1024,2,48000,-16,experiment,SSSSS,3,odd,30615,189858,NA,227119,228333,196109,4594,210153,NA,228221,4609,174975,NA,228333,228717,228211,Flanker Task,101,55363,103,yes,1024
incongruent,97.11538462,97.11538462,535.4038462,535.4038462,black,legacy,legacy,legacy,0,uniform,0,undefined,0,h,0,0,0,103,103,103,0,103,0,103,0,0,0,103,103,103,Sun Sep  9 21:50:03 2018,600,The main experiment item,yes,FlankerTask.osexp,/Users/hannahrae97/Desktop,no,mono,no,18,no,white,no,yes,768,legacy,23,79,/Users/hannahrae97/Desktop/CTsubject-3.csv,legacy,Kafkaesque Koffka,3.2.5,0,s,NA,s,h,NA,s,319,NA,25984,14881,NA,319,2,legacy,1024,2,48000,-16,experiment,SSHSS,3,odd,30615,189858,NA,228729,229949,196109,4594,210153,NA,229836,4609,174975,NA,229949,230270,229826,Flanker Task,101,55682,104,yes,1024
incongruent,96.19047619,96.19047619,534.9714286,534.9714286,black,legacy,legacy,legacy,0,uniform,0,undefined,0,h,0,0,0,104,104,104,0,104,0,104,0,0,0,104,104,104,Sun Sep  9 21:50:03 2018,600,The main experiment item,yes,FlankerTask.osexp,/Users/hannahrae97/Desktop,no,mono,no,18,no,white,no,yes,768,legacy,24,79,/Users/hannahrae97/Desktop/CTsubject-3.csv,legacy,Kafkaesque Koffka,3.2.5,0,s,NA,s,h,NA,s,490,NA,25984,14881,NA,490,2,legacy,1024,2,48000,-16,experiment,SSHSS,3,odd,30615,189858,NA,230790,232002,230282,4594,210153,NA,231893,4609,174975,NA,232002,232494,231884,Flanker Task,101,56172,105,yes,1024
incongruent,96.22641509,96.22641509,536.1509434,536.1509434,black,legacy,legacy,legacy,0,uniform,1,undefined,1,s,0,0,0,105,105,105,0,105,0,105,0,0,0,105,105,105,Sun Sep  9 21:50:03 2018,600,The main experiment item,yes,FlankerTask.osexp,/Users/hannahrae97/Desktop,no,mono,no,18,no,white,no,yes,768,legacy,25,79,/Users/hannahrae97/Desktop/CTsubject-3.csv,legacy,Kafkaesque Koffka,3.2.5,0,s,NA,s,h,NA,s,660,NA,25984,14881,NA,660,2,legacy,1024,2,48000,-16,experiment,HHSHH,3,odd,30615,189858,NA,233014,234228,232506,4594,210153,NA,234116,4609,174975,NA,234228,234890,234108,Flanker Task,102,56832,106,yes,1024
Congruent,96.26168224,96.26168224,538.8037383,538.8037383,black,legacy,legacy,legacy,0,uniform,1,undefined,1,s,0,0,0,106,106,106,0,106,0,106,0,0,0,106,106,106,Sun Sep  9 21:50:03 2018,600,The main experiment item,yes,FlankerTask.osexp,/Users/hannahrae97/Desktop,no,mono,no,18,no,white,no,yes,768,legacy,26,79,/Users/hannahrae97/Desktop/CTsubject-3.csv,legacy,Kafkaesque Koffka,3.2.5,0,s,NA,s,h,NA,s,820,NA,25984,14881,NA,820,2,legacy,1024,2,48000,-16,experiment,SSSSS,3,odd,30615,189858,NA,235411,236625,232506,4594,234902,NA,236516,4609,174975,NA,236625,237447,236507,Flanker Task,103,57652,107,yes,1024
incongruent,96.2962963,96.2962963,537.212963,537.212963,black,legacy,legacy,legacy,0,uniform,1,undefined,1,h,0,0,0,107,107,107,0,107,0,107,0,0,0,107,107,107,Sun Sep  9 21:50:03 2018,600,The main experiment item,yes,FlankerTask.osexp,/Users/hannahrae97/Desktop,no,mono,no,18,no,white,no,yes,768,legacy,27,79,/Users/hannahrae97/Desktop/CTsubject-3.csv,legacy,Kafkaesque Koffka,3.2.5,0,h,NA,s,h,NA,h,367,NA,25984,14881,NA,367,2,legacy,1024,2,48000,-16,experiment,SSHSS,3,odd,30615,189858,NA,237967,239178,232506,4594,237458,NA,239069,4609,174975,NA,239178,239547,239060,Flanker Task,104,58019,108,yes,1024
incongruent,96.33027523,96.33027523,536.8165138,536.8165138,black,legacy,legacy,legacy,0,uniform,1,undefined,1,s,0,0,0,108,108,108,0,108,0,108,0,0,0,108,108,108,Sun Sep  9 21:50:03 2018,600,The main experiment item,yes,FlankerTask.osexp,/Users/hannahrae97/Desktop,no,mono,no,18,no,white,no,yes,768,legacy,28,79,/Users/hannahrae97/Desktop/CTsubject-3.csv,legacy,Kafkaesque Koffka,3.2.5,0,s,NA,s,h,NA,s,494,NA,25984,14881,NA,494,2,legacy,1024,2,48000,-16,experiment,HHSHH,3,odd,30615,189858,NA,239559,240782,232506,4594,237458,NA,240669,4609,174975,NA,240782,241278,240660,Flanker Task,105,58513,109,yes,1024
incongruent,96.36363636,96.36363636,536.1181818,536.1181818,black,legacy,legacy,legacy,0,uniform,1,undefined,1,s,0,0,0,109,109,109,0,109,0,109,0,0,0,109,109,109,Sun Sep  9 21:50:03 2018,600,The main experiment item,yes,FlankerTask.osexp,/Users/hannahrae97/Desktop,no,mono,no,18,no,white,no,yes,768,legacy,29,79,/Users/hannahrae97/Desktop/CTsubject-3.csv,legacy,Kafkaesque Koffka,3.2.5,0,s,NA,s,h,NA,s,460,NA,25984,14881,NA,460,2,legacy,1024,2,48000,-16,experiment,HHSHH,3,odd,30615,189858,NA,241290,242507,232506,4594,237458,NA,242393,4609,174975,NA,242507,242969,242384,Flanker Task,106,58973,110,yes,1024
congruent,96.3963964,96.3963964,535.027027,535.027027,black,legacy,legacy,legacy,0,uniform,1,undefined,1,h,0,0,0,110,110,110,0,110,0,110,0,0,0,110,110,110,Sun Sep  9 21:50:03 2018,600,The main experiment item,yes,FlankerTask.osexp,/Users/hannahrae97/Desktop,no,mono,no,18,no,white,no,yes,768,legacy,30,79,/Users/hannahrae97/Desktop/CTsubject-3.csv,legacy,Kafkaesque Koffka,3.2.5,0,h,NA,s,h,NA,h,415,NA,25984,14881,NA,415,2,legacy,1024,2,48000,-16,experiment,HHHHH,3,odd,30615,189858,NA,242980,244198,232506,4594,237458,NA,244087,4609,174975,NA,244198,244615,244079,Flanker Task,107,59388,111,yes,1024
incongruent,96.42857143,96.42857143,534.1875,534.1875,black,legacy,legacy,legacy,0,uniform,1,undefined,1,s,0,0,0,111,111,111,0,111,0,111,0,0,0,111,111,111,Sun Sep  9 21:50:03 2018,600,The main experiment item,yes,FlankerTask.osexp,/Users/hannahrae97/Desktop,no,mono,no,18,no,white,no,yes,768,legacy,31,79,/Users/hannahrae97/Desktop/CTsubject-3.csv,legacy,Kafkaesque Koffka,3.2.5,0,s,NA,s,h,NA,s,441,NA,25984,14881,NA,441,2,legacy,1024,2,48000,-16,experiment,HHSHH,3,odd,30615,189858,NA,244628,245844,232506,4594,237458,NA,245736,4609,174975,NA,245844,246287,245727,Flanker Task,108,59829,112,yes,1024
Congruent,96.46017699,96.46017699,532.7876106,532.7876106,black,legacy,legacy,legacy,0,uniform,1,undefined,1,s,0,0,0,112,112,112,0,112,0,112,0,0,0,112,112,112,Sun Sep  9 21:50:03 2018,600,The main experiment item,yes,FlankerTask.osexp,/Users/hannahrae97/Desktop,no,mono,no,18,no,white,no,yes,768,legacy,32,79,/Users/hannahrae97/Desktop/CTsubject-3.csv,legacy,Kafkaesque Koffka,3.2.5,0,s,NA,s,h,NA,s,376,NA,25984,14881,NA,376,2,legacy,1024,2,48000,-16,experiment,SSSSS,3,odd,30615,189858,NA,246301,247510,232506,4594,237458,NA,247401,4609,174975,NA,247510,247888,247391,Flanker Task,109,60205,113,yes,1024
Congruent,96.49122807,96.49122807,531.6754386,531.6754386,black,legacy,legacy,legacy,0,uniform,1,undefined,1,s,0,0,0,113,113,113,0,113,0,113,0,0,0,113,113,113,Sun Sep  9 21:50:03 2018,600,The main experiment item,yes,FlankerTask.osexp,/Users/hannahrae97/Desktop,no,mono,no,18,no,white,no,yes,768,legacy,33,79,/Users/hannahrae97/Desktop/CTsubject-3.csv,legacy,Kafkaesque Koffka,3.2.5,0,s,NA,s,h,NA,s,406,NA,25984,14881,NA,406,2,legacy,1024,2,48000,-16,experiment,SSSSS,3,odd,30615,189858,NA,247900,249111,232506,4594,237458,NA,249002,4609,174975,NA,249111,249519,248995,Flanker Task,110,60611,114,yes,1024
Congruent,96.52173913,96.52173913,529.773913,529.773913,black,legacy,legacy,legacy,0,uniform,1,undefined,1,s,0,0,0,114,114,114,0,114,0,114,0,0,0,114,114,114,Sun Sep  9 21:50:03 2018,600,The main experiment item,yes,FlankerTask.osexp,/Users/hannahrae97/Desktop,no,mono,no,18,no,white,no,yes,768,legacy,34,79,/Users/hannahrae97/Desktop/CTsubject-3.csv,legacy,Kafkaesque Koffka,3.2.5,0,s,NA,s,h,NA,s,313,NA,25984,14881,NA,313,2,legacy,1024,2,48000,-16,experiment,SSSSS,3,odd,30615,189858,NA,249530,250746,232506,4594,237458,NA,250635,4609,174975,NA,250747,251062,250626,Flanker Task,111,60924,115,yes,1024
congruent,96.55172414,96.55172414,528.887931,528.887931,black,legacy,legacy,legacy,0,uniform,1,undefined,1,h,0,0,0,115,115,115,0,115,0,115,0,0,0,115,115,115,Sun Sep  9 21:50:03 2018,600,The main experiment item,yes,FlankerTask.osexp,/Users/hannahrae97/Desktop,no,mono,no,18,no,white,no,yes,768,legacy,35,79,/Users/hannahrae97/Desktop/CTsubject-3.csv,legacy,Kafkaesque Koffka,3.2.5,0,h,NA,s,h,NA,h,427,NA,25984,14881,NA,427,2,legacy,1024,2,48000,-16,experiment,HHHHH,3,odd,30615,189858,NA,251074,252287,232506,4594,237458,NA,252178,4609,174975,NA,252287,252717,252171,Flanker Task,112,61351,116,yes,1024
incongruent,96.58119658,96.58119658,528,528,black,legacy,legacy,legacy,0,uniform,1,undefined,1,s,0,0,0,116,116,116,0,116,0,116,0,0,0,116,116,116,Sun Sep  9 21:50:03 2018,600,The main experiment item,yes,FlankerTask.osexp,/Users/hannahrae97/Desktop,no,mono,no,18,no,white,no,yes,768,legacy,36,79,/Users/hannahrae97/Desktop/CTsubject-3.csv,legacy,Kafkaesque Koffka,3.2.5,0,s,NA,s,h,NA,s,425,NA,25984,14881,NA,425,2,legacy,1024,2,48000,-16,experiment,HHSHH,3,odd,30615,189858,NA,252733,253954,232506,4594,237458,NA,253843,4609,174975,NA,253955,254383,253832,Flanker Task,113,61776,117,yes,1024
congruent,96.61016949,96.61016949,526.2372881,526.2372881,black,legacy,legacy,legacy,0,uniform,1,undefined,1,h,0,0,0,117,117,117,0,117,0,117,0,0,0,117,117,117,Sun Sep  9 21:50:03 2018,600,The main experiment item,yes,FlankerTask.osexp,/Users/hannahrae97/Desktop,no,mono,no,18,no,white,no,yes,768,legacy,37,79,/Users/hannahrae97/Desktop/CTsubject-3.csv,legacy,Kafkaesque Koffka,3.2.5,0,h,NA,s,h,NA,h,320,NA,25984,14881,NA,320,2,legacy,1024,2,48000,-16,experiment,HHHHH,3,odd,30615,189858,NA,254399,255648,232506,4594,237458,NA,255534,4609,174975,NA,255648,255970,255524,Flanker Task,114,62096,118,yes,1024
Congruent,96.63865546,96.63865546,524.394958,524.394958,black,legacy,legacy,legacy,0,uniform,1,undefined,1,s,0,0,0,118,118,118,0,118,0,118,0,0,0,118,118,118,Sun Sep  9 21:50:03 2018,600,The main experiment item,yes,FlankerTask.osexp,/Users/hannahrae97/Desktop,no,mono,no,18,no,white,no,yes,768,legacy,38,79,/Users/hannahrae97/Desktop/CTsubject-3.csv,legacy,Kafkaesque Koffka,3.2.5,0,s,NA,s,h,NA,s,307,NA,25984,14881,NA,307,2,legacy,1024,2,48000,-16,experiment,SSSSS,3,odd,30615,189858,NA,255983,257199,232506,4594,237458,NA,257089,4609,174975,NA,257199,257508,257079,Flanker Task,115,62403,119,yes,1024
congruent,96.66666667,96.66666667,522.5333333,522.5333333,black,legacy,legacy,legacy,0,uniform,1,undefined,1,h,0,0,0,119,119,119,0,119,0,119,0,0,0,119,119,119,Sun Sep  9 21:50:03 2018,600,The main experiment item,yes,FlankerTask.osexp,/Users/hannahrae97/Desktop,no,mono,no,18,no,white,no,yes,768,legacy,39,79,/Users/hannahrae97/Desktop/CTsubject-3.csv,legacy,Kafkaesque Koffka,3.2.5,0,h,NA,s,h,NA,h,301,NA,25984,14881,NA,301,2,legacy,1024,2,48000,-16,experiment,HHHHH,3,odd,30615,189858,NA,257520,258738,232506,4594,237458,NA,258625,4609,174975,NA,258738,259041,258616,Flanker Task,116,62704,120,yes,1024
congruent,96.69421488,96.69421488,521.3471074,521.3471074,black,legacy,legacy,legacy,0,uniform,1,undefined,1,h,0,0,0,120,120,120,0,120,0,120,0,0,0,120,120,120,Sun Sep  9 21:50:03 2018,600,The main experiment item,yes,FlankerTask.osexp,/Users/hannahrae97/Desktop,no,mono,no,18,no,white,no,yes,768,legacy,40,79,/Users/hannahrae97/Desktop/CTsubject-3.csv,legacy,Kafkaesque Koffka,3.2.5,0,h,NA,s,h,NA,h,379,NA,25984,14881,NA,379,2,legacy,1024,2,48000,-16,experiment,HHHHH,3,odd,30615,189858,NA,259053,260269,232506,4594,237458,NA,260161,4609,174975,NA,260269,260650,260150,Flanker Task,117,63083,121,yes,1024
congruent,96.72131148,96.72131148,519.8852459,519.8852459,black,legacy,legacy,legacy,0,uniform,1,undefined,1,h,0,0,0,121,121,121,0,121,0,121,0,0,0,121,121,121,Sun Sep  9 21:50:03 2018,600,The main experiment item,yes,FlankerTask.osexp,/Users/hannahrae97/Desktop,no,mono,no,18,no,white,no,yes,768,legacy,41,79,/Users/hannahrae97/Desktop/CTsubject-3.csv,legacy,Kafkaesque Koffka,3.2.5,0,h,NA,s,h,NA,h,343,NA,25984,14881,NA,343,2,legacy,1024,2,48000,-16,experiment,HHHHH,3,odd,30615,189858,NA,260663,261875,232506,4594,237458,NA,261761,4609,174975,NA,261875,262220,261753,Flanker Task,118,63426,122,yes,1024
incongruent,96.74796748,96.74796748,520.7398374,520.7398374,black,legacy,legacy,legacy,0,uniform,1,undefined,1,h,0,0,0,122,122,122,0,122,0,122,0,0,0,122,122,122,Sun Sep  9 21:50:03 2018,600,The main experiment item,yes,FlankerTask.osexp,/Users/hannahrae97/Desktop,no,mono,no,18,no,white,no,yes,768,legacy,42,79,/Users/hannahrae97/Desktop/CTsubject-3.csv,legacy,Kafkaesque Koffka,3.2.5,0,h,NA,s,h,NA,h,625,NA,25984,14881,NA,625,2,legacy,1024,2,48000,-16,experiment,SSHSS,3,odd,30615,189858,NA,262233,263449,232506,4594,237458,NA,263335,4609,174975,NA,263449,264076,263327,Flanker Task,119,64051,123,yes,1024
congruent,96.77419355,96.77419355,519.5967742,519.5967742,black,legacy,legacy,legacy,0,uniform,1,undefined,1,h,0,0,0,123,123,123,0,123,0,123,0,0,0,123,123,123,Sun Sep  9 21:50:03 2018,600,The main experiment item,yes,FlankerTask.osexp,/Users/hannahrae97/Desktop,no,mono,no,18,no,white,no,yes,768,legacy,43,79,/Users/hannahrae97/Desktop/CTsubject-3.csv,legacy,Kafkaesque Koffka,3.2.5,0,h,NA,s,h,NA,h,379,NA,25984,14881,NA,379,2,legacy,1024,2,48000,-16,experiment,HHHHH,3,odd,30615,189858,NA,264596,265806,232506,4594,264088,NA,265696,4609,174975,NA,265806,266187,265688,Flanker Task,120,64430,124,yes,1024
incongruent,96.8,96.8,519.232,519.232,black,legacy,legacy,legacy,0,uniform,1,undefined,1,s,0,0,0,124,124,124,0,124,0,124,0,0,0,124,124,124,Sun Sep  9 21:50:03 2018,600,The main experiment item,yes,FlankerTask.osexp,/Users/hannahrae97/Desktop,no,mono,no,18,no,white,no,yes,768,legacy,44,79,/Users/hannahrae97/Desktop/CTsubject-3.csv,legacy,Kafkaesque Koffka,3.2.5,0,s,NA,s,h,NA,s,474,NA,25984,14881,NA,474,2,legacy,1024,2,48000,-16,experiment,HHSHH,3,odd,30615,189858,NA,266199,267406,232506,4594,264088,NA,267298,4609,174975,NA,267406,267882,267290,Flanker Task,121,64904,125,yes,1024
incongruent,96.82539683,96.82539683,518.4047619,518.4047619,black,legacy,legacy,legacy,0,uniform,1,undefined,1,h,0,0,0,125,125,125,0,125,0,125,0,0,0,125,125,125,Sun Sep  9 21:50:03 2018,600,The main experiment item,yes,FlankerTask.osexp,/Users/hannahrae97/Desktop,no,mono,no,18,no,white,no,yes,768,legacy,45,79,/Users/hannahrae97/Desktop/CTsubject-3.csv,legacy,Kafkaesque Koffka,3.2.5,0,h,NA,s,h,NA,h,415,NA,25984,14881,NA,415,2,legacy,1024,2,48000,-16,experiment,SSHSS,3,odd,30615,189858,NA,267895,269108,232506,4594,264088,NA,268998,4609,174975,NA,269108,269525,268990,Flanker Task,122,65319,126,yes,1024
incongruent,96.8503937,96.8503937,518.1181102,518.1181102,black,legacy,legacy,legacy,0,uniform,1,undefined,1,h,0,0,0,126,126,126,0,126,0,126,0,0,0,126,126,126,Sun Sep  9 21:50:03 2018,600,The main experiment item,yes,FlankerTask.osexp,/Users/hannahrae97/Desktop,no,mono,no,18,no,white,no,yes,768,legacy,46,79,/Users/hannahrae97/Desktop/CTsubject-3.csv,legacy,Kafkaesque Koffka,3.2.5,0,h,NA,s,h,NA,h,482,NA,25984,14881,NA,482,2,legacy,1024,2,48000,-16,experiment,SSHSS,3,odd,30615,189858,NA,269537,270756,232506,4594,264088,NA,270645,4609,174975,NA,270756,271240,270637,Flanker Task,123,65801,127,yes,1024
congruent,96.875,96.875,516.953125,516.953125,black,legacy,legacy,legacy,0,uniform,1,undefined,1,h,0,0,0,127,127,127,0,127,0,127,0,0,0,127,127,127,Sun Sep  9 21:50:03 2018,600,The main experiment item,yes,FlankerTask.osexp,/Users/hannahrae97/Desktop,no,mono,no,18,no,white,no,yes,768,legacy,47,79,/Users/hannahrae97/Desktop/CTsubject-3.csv,legacy,Kafkaesque Koffka,3.2.5,0,h,NA,s,h,NA,h,369,NA,25984,14881,NA,369,2,legacy,1024,2,48000,-16,experiment,HHHHH,3,odd,30615,189858,NA,271252,272466,232506,4594,264088,NA,272358,4609,174975,NA,272466,272838,272348,Flanker Task,124,66170,128,yes,1024
incongruent,96.89922481,96.89922481,516.7906977,516.7906977,black,legacy,legacy,legacy,0,uniform,1,undefined,1,h,0,0,0,128,128,128,0,128,0,128,0,0,0,128,128,128,Sun Sep  9 21:50:03 2018,600,The main experiment item,yes,FlankerTask.osexp,/Users/hannahrae97/Desktop,no,mono,no,18,no,white,no,yes,768,legacy,48,79,/Users/hannahrae97/Desktop/CTsubject-3.csv,legacy,Kafkaesque Koffka,3.2.5,0,h,NA,s,h,NA,h,496,NA,25984,14881,NA,496,2,legacy,1024,2,48000,-16,experiment,SSHSS,3,odd,30615,189858,NA,272852,274060,232506,4594,264088,NA,273950,4609,174975,NA,274060,274559,273941,Flanker Task,125,66666,129,yes,1024
incongruent,96.92307692,96.92307692,515.6923077,515.6923077,black,legacy,legacy,legacy,0,uniform,1,undefined,1,h,0,0,0,129,129,129,0,129,0,129,0,0,0,129,129,129,Sun Sep  9 21:50:03 2018,600,The main experiment item,yes,FlankerTask.osexp,/Users/hannahrae97/Desktop,no,mono,no,18,no,white,no,yes,768,legacy,49,79,/Users/hannahrae97/Desktop/CTsubject-3.csv,legacy,Kafkaesque Koffka,3.2.5,0,h,NA,s,h,NA,h,374,NA,25984,14881,NA,374,2,legacy,1024,2,48000,-16,experiment,SSHSS,3,odd,30615,189858,NA,274570,275788,232506,4594,264088,NA,275675,4609,174975,NA,275788,276165,275666,Flanker Task,126,67040,130,yes,1024
incongruent,96.94656489,96.94656489,514.5038168,514.5038168,black,legacy,legacy,legacy,0,uniform,1,undefined,1,h,0,0,0,130,130,130,0,130,0,130,0,0,0,130,130,130,Sun Sep  9 21:50:03 2018,600,The main experiment item,yes,FlankerTask.osexp,/Users/hannahrae97/Desktop,no,mono,no,18,no,white,no,yes,768,legacy,50,79,/Users/hannahrae97/Desktop/CTsubject-3.csv,legacy,Kafkaesque Koffka,3.2.5,0,h,NA,s,h,NA,h,360,NA,25984,14881,NA,360,2,legacy,1024,2,48000,-16,experiment,SSHSS,3,odd,30615,189858,NA,276177,277391,232506,4594,264088,NA,277282,4609,174975,NA,277391,277753,277273,Flanker Task,127,67400,131,yes,1024
Congruent,96.96969697,96.96969697,514.2651515,514.2651515,black,legacy,legacy,legacy,0,uniform,1,undefined,1,s,0,0,0,131,131,131,0,131,0,131,0,0,0,131,131,131,Sun Sep  9 21:50:03 2018,600,The main experiment item,yes,FlankerTask.osexp,/Users/hannahrae97/Desktop,no,mono,no,18,no,white,no,yes,768,legacy,51,79,/Users/hannahrae97/Desktop/CTsubject-3.csv,legacy,Kafkaesque Koffka,3.2.5,0,s,NA,s,h,NA,s,483,NA,25984,14881,NA,483,2,legacy,1024,2,48000,-16,experiment,SSSSS,3,odd,30615,189858,NA,277765,278989,232506,4594,264088,NA,278875,4609,174975,NA,278989,279474,278867,Flanker Task,128,67883,132,yes,1024
incongruent,96.9924812,96.9924812,513.6390977,513.6390977,black,legacy,legacy,legacy,0,uniform,1,undefined,1,h,0,0,0,132,132,132,0,132,0,132,0,0,0,132,132,132,Sun Sep  9 21:50:03 2018,600,The main experiment item,yes,FlankerTask.osexp,/Users/hannahrae97/Desktop,no,mono,no,18,no,white,no,yes,768,legacy,52,79,/Users/hannahrae97/Desktop/CTsubject-3.csv,legacy,Kafkaesque Koffka,3.2.5,0,h,NA,s,h,NA,h,431,NA,25984,14881,NA,431,2,legacy,1024,2,48000,-16,experiment,SSHSS,3,odd,30615,189858,NA,279489,280705,232506,4594,264088,NA,280592,4609,174975,NA,280705,281139,280583,Flanker Task,129,68314,133,yes,1024
congruent,97.01492537,97.01492537,512.9776119,512.9776119,black,legacy,legacy,legacy,0,uniform,1,undefined,1,h,0,0,0,133,133,133,0,133,0,133,0,0,0,133,133,133,Sun Sep  9 21:50:03 2018,600,The main experiment item,yes,FlankerTask.osexp,/Users/hannahrae97/Desktop,no,mono,no,18,no,white,no,yes,768,legacy,53,79,/Users/hannahrae97/Desktop/CTsubject-3.csv,legacy,Kafkaesque Koffka,3.2.5,0,h,NA,s,h,NA,h,425,NA,25984,14881,NA,425,2,legacy,1024,2,48000,-16,experiment,HHHHH,3,odd,30615,189858,NA,281152,282364,232506,4594,264088,NA,282253,4609,174975,NA,282364,282791,282245,Flanker Task,130,68739,134,yes,1024
incongruent,97.03703704,97.03703704,513.4666667,513.4666667,black,legacy,legacy,legacy,0,uniform,1,undefined,1,s,0,0,0,134,134,134,0,134,0,134,0,0,0,134,134,134,Sun Sep  9 21:50:03 2018,600,The main experiment item,yes,FlankerTask.osexp,/Users/hannahrae97/Desktop,no,mono,no,18,no,white,no,yes,768,legacy,54,79,/Users/hannahrae97/Desktop/CTsubject-3.csv,legacy,Kafkaesque Koffka,3.2.5,0,s,NA,s,h,NA,s,579,NA,25984,14881,NA,579,2,legacy,1024,2,48000,-16,experiment,HHSHH,3,odd,30615,189858,NA,282803,284021,232506,4594,264088,NA,283912,4609,174975,NA,284021,284603,283901,Flanker Task,131,69318,135,yes,1024
Congruent,97.05882353,97.05882353,512.7867647,512.7867647,black,legacy,legacy,legacy,0,uniform,1,undefined,1,s,0,0,0,135,135,135,0,135,0,135,0,0,0,135,135,135,Sun Sep  9 21:50:03 2018,600,The main experiment item,yes,FlankerTask.osexp,/Users/hannahrae97/Desktop,no,mono,no,18,no,white,no,yes,768,legacy,55,79,/Users/hannahrae97/Desktop/CTsubject-3.csv,legacy,Kafkaesque Koffka,3.2.5,0,s,NA,s,h,NA,s,421,NA,25984,14881,NA,421,2,legacy,1024,2,48000,-16,experiment,SSSSS,3,odd,30615,189858,NA,284614,285844,232506,4594,264088,NA,285730,4609,174975,NA,285844,286267,285720,Flanker Task,132,69739,136,yes,1024
congruent,97.08029197,97.08029197,512.5328467,512.5328467,black,legacy,legacy,legacy,0,uniform,1,undefined,1,h,0,0,0,136,136,136,0,136,0,136,0,0,0,136,136,136,Sun Sep  9 21:50:03 2018,600,The main experiment item,yes,FlankerTask.osexp,/Users/hannahrae97/Desktop,no,mono,no,18,no,white,no,yes,768,legacy,56,79,/Users/hannahrae97/Desktop/CTsubject-3.csv,legacy,Kafkaesque Koffka,3.2.5,0,h,NA,s,h,NA,h,478,NA,25984,14881,NA,478,2,legacy,1024,2,48000,-16,experiment,HHHHH,3,odd,30615,189858,NA,286279,287494,232506,4594,264088,NA,287386,4609,174975,NA,287494,287973,287377,Flanker Task,133,70217,137,yes,1024
Congruent,97.10144928,97.10144928,511.3405797,511.3405797,black,legacy,legacy,legacy,0,uniform,1,undefined,1,s,0,0,0,137,137,137,0,137,0,137,0,0,0,137,137,137,Sun Sep  9 21:50:03 2018,600,The main experiment item,yes,FlankerTask.osexp,/Users/hannahrae97/Desktop,no,mono,no,18,no,white,no,yes,768,legacy,57,79,/Users/hannahrae97/Desktop/CTsubject-3.csv,legacy,Kafkaesque Koffka,3.2.5,0,s,NA,s,h,NA,s,348,NA,25984,14881,NA,348,2,legacy,1024,2,48000,-16,experiment,SSSSS,3,odd,30615,189858,NA,287986,289199,232506,4594,264088,NA,289090,4609,174975,NA,289199,289549,289079,Flanker Task,134,70565,138,yes,1024
incongruent,97.12230216,97.12230216,510.9640288,510.9640288,black,legacy,legacy,legacy,0,uniform,1,undefined,1,h,0,0,0,138,138,138,0,138,0,138,0,0,0,138,138,138,Sun Sep  9 21:50:03 2018,600,The main experiment item,yes,FlankerTask.osexp,/Users/hannahrae97/Desktop,no,mono,no,18,no,white,no,yes,768,legacy,58,79,/Users/hannahrae97/Desktop/CTsubject-3.csv,legacy,Kafkaesque Koffka,3.2.5,0,h,NA,s,h,NA,h,459,NA,25984,14881,NA,459,2,legacy,1024,2,48000,-16,experiment,SSHSS,3,odd,30615,189858,NA,289563,290781,232506,4594,264088,NA,290672,4609,174975,NA,290781,291242,290662,Flanker Task,135,71024,139,yes,1024
congruent,97.14285714,97.14285714,513.3571429,513.3571429,black,legacy,legacy,legacy,0,uniform,1,undefined,1,h,0,0,0,139,139,139,0,139,0,139,0,0,0,139,139,139,Sun Sep  9 21:50:03 2018,600,The main experiment item,yes,FlankerTask.osexp,/Users/hannahrae97/Desktop,no,mono,no,18,no,white,no,yes,768,legacy,59,79,/Users/hannahrae97/Desktop/CTsubject-3.csv,legacy,Kafkaesque Koffka,3.2.5,0,h,NA,s,h,NA,h,846,NA,25984,14881,NA,846,2,legacy,1024,2,48000,-16,experiment,HHHHH,3,odd,30615,189858,NA,291254,292463,232506,4594,264088,NA,292355,4609,174975,NA,292464,293312,292347,Flanker Task,136,71870,140,yes,1024
incongruent,97.16312057,97.16312057,513.8510638,513.8510638,black,legacy,legacy,legacy,0,uniform,1,undefined,1,s,0,0,0,140,140,140,0,140,0,140,0,0,0,140,140,140,Sun Sep  9 21:50:03 2018,600,The main experiment item,yes,FlankerTask.osexp,/Users/hannahrae97/Desktop,no,mono,no,18,no,white,no,yes,768,legacy,60,79,/Users/hannahrae97/Desktop/CTsubject-3.csv,legacy,Kafkaesque Koffka,3.2.5,0,s,NA,s,h,NA,s,583,NA,25984,14881,NA,583,2,legacy,1024,2,48000,-16,experiment,HHSHH,3,odd,30615,189858,NA,293833,295046,232506,4594,293325,NA,294937,4609,174975,NA,295047,295632,294929,Flanker Task,137,72453,141,yes,1024
incongruent,97.18309859,97.18309859,512.8732394,512.8732394,black,legacy,legacy,legacy,0,uniform,1,undefined,1,h,0,0,0,141,141,141,0,141,0,141,0,0,0,141,141,141,Sun Sep  9 21:50:03 2018,600,The main experiment item,yes,FlankerTask.osexp,/Users/hannahrae97/Desktop,no,mono,no,18,no,white,no,yes,768,legacy,61,79,/Users/hannahrae97/Desktop/CTsubject-3.csv,legacy,Kafkaesque Koffka,3.2.5,0,h,NA,s,h,NA,h,375,NA,25984,14881,NA,375,2,legacy,1024,2,48000,-16,experiment,SSHSS,3,odd,30615,189858,NA,295643,296859,232506,4594,293325,NA,296748,4609,174975,NA,296860,297237,296739,Flanker Task,138,72828,142,yes,1024
incongruent,97.2027972,97.2027972,511.5804196,511.5804196,black,legacy,legacy,legacy,0,uniform,1,undefined,1,s,0,0,0,142,142,142,0,142,0,142,0,0,0,142,142,142,Sun Sep  9 21:50:03 2018,600,The main experiment item,yes,FlankerTask.osexp,/Users/hannahrae97/Desktop,no,mono,no,18,no,white,no,yes,768,legacy,62,79,/Users/hannahrae97/Desktop/CTsubject-3.csv,legacy,Kafkaesque Koffka,3.2.5,0,s,NA,s,h,NA,s,328,NA,25984,14881,NA,328,2,legacy,1024,2,48000,-16,experiment,HHSHH,3,odd,30615,189858,NA,297250,298464,232506,4594,293325,NA,298355,4609,174975,NA,298464,298794,298347,Flanker Task,139,73156,143,yes,1024
incongruent,97.22222222,97.22222222,510.9513889,510.9513889,black,legacy,legacy,legacy,0,uniform,1,undefined,1,h,0,0,0,143,143,143,0,143,0,143,0,0,0,143,143,143,Sun Sep  9 21:50:03 2018,600,The main experiment item,yes,FlankerTask.osexp,/Users/hannahrae97/Desktop,no,mono,no,18,no,white,no,yes,768,legacy,63,79,/Users/hannahrae97/Desktop/CTsubject-3.csv,legacy,Kafkaesque Koffka,3.2.5,0,h,NA,s,h,NA,h,421,NA,25984,14881,NA,421,2,legacy,1024,2,48000,-16,experiment,SSHSS,3,odd,30615,189858,NA,298807,300022,232506,4594,293325,NA,299913,4609,174975,NA,300022,300445,299904,Flanker Task,140,73577,144,yes,1024
incongruent,97.24137931,97.24137931,510.8758621,510.8758621,black,legacy,legacy,legacy,0,uniform,1,undefined,1,s,0,0,0,144,144,144,0,144,0,144,0,0,0,144,144,144,Sun Sep  9 21:50:03 2018,600,The main experiment item,yes,FlankerTask.osexp,/Users/hannahrae97/Desktop,no,mono,no,18,no,white,no,yes,768,legacy,64,79,/Users/hannahrae97/Desktop/CTsubject-3.csv,legacy,Kafkaesque Koffka,3.2.5,0,s,NA,s,h,NA,s,500,NA,25984,14881,NA,500,2,legacy,1024,2,48000,-16,experiment,HHSHH,3,odd,30615,189858,NA,300458,301667,232506,4594,293325,NA,301559,4609,174975,NA,301667,302169,301551,Flanker Task,141,74077,145,yes,1024
incongruent,96.57534247,96.57534247,509.6506849,509.6506849,black,legacy,legacy,legacy,0,uniform,0,undefined,0,s,0,0,0,145,145,145,0,145,0,145,0,0,0,145,145,145,Sun Sep  9 21:50:03 2018,600,The main experiment item,yes,FlankerTask.osexp,/Users/hannahrae97/Desktop,no,mono,no,18,no,white,no,yes,768,legacy,65,79,/Users/hannahrae97/Desktop/CTsubject-3.csv,legacy,Kafkaesque Koffka,3.2.5,0,h,NA,s,h,NA,h,332,NA,25984,14881,NA,332,2,legacy,1024,2,48000,-16,experiment,HHSHH,3,odd,30615,189858,NA,302181,303396,232506,4594,293325,NA,303282,4609,174975,NA,303396,303730,303274,Flanker Task,141,74409,146,yes,1024
incongruent,95.91836735,95.91836735,509.9455782,509.9455782,black,legacy,legacy,legacy,0,uniform,0,undefined,0,h,0,0,0,146,146,146,0,146,0,146,0,0,0,146,146,146,Sun Sep  9 21:50:03 2018,600,The main experiment item,yes,FlankerTask.osexp,/Users/hannahrae97/Desktop,no,mono,no,18,no,white,no,yes,768,legacy,66,79,/Users/hannahrae97/Desktop/CTsubject-3.csv,legacy,Kafkaesque Koffka,3.2.5,0,s,NA,s,h,NA,s,553,NA,25984,14881,NA,553,2,legacy,1024,2,48000,-16,experiment,SSHSS,3,odd,30615,189858,NA,304250,305461,303742,4594,293325,NA,305350,4609,174975,NA,305461,306016,305342,Flanker Task,141,74962,147,yes,1024
congruent,95.94594595,95.94594595,511.3783784,511.3783784,black,legacy,legacy,legacy,0,uniform,1,undefined,1,h,0,0,0,147,147,147,0,147,0,147,0,0,0,147,147,147,Sun Sep  9 21:50:03 2018,600,The main experiment item,yes,FlankerTask.osexp,/Users/hannahrae97/Desktop,no,mono,no,18,no,white,no,yes,768,legacy,67,79,/Users/hannahrae97/Desktop/CTsubject-3.csv,legacy,Kafkaesque Koffka,3.2.5,0,h,NA,s,h,NA,h,722,NA,25984,14881,NA,722,2,legacy,1024,2,48000,-16,experiment,HHHHH,3,odd,30615,189858,NA,306535,307751,306027,4594,293325,NA,307643,4609,174975,NA,307751,308474,307633,Flanker Task,142,75684,148,yes,1024
incongruent,95.97315436,95.97315436,511.2214765,511.2214765,black,legacy,legacy,legacy,0,uniform,1,undefined,1,h,0,0,0,148,148,148,0,148,0,148,0,0,0,148,148,148,Sun Sep  9 21:50:03 2018,600,The main experiment item,yes,FlankerTask.osexp,/Users/hannahrae97/Desktop,no,mono,no,18,no,white,no,yes,768,legacy,68,79,/Users/hannahrae97/Desktop/CTsubject-3.csv,legacy,Kafkaesque Koffka,3.2.5,0,h,NA,s,h,NA,h,488,NA,25984,14881,NA,488,2,legacy,1024,2,48000,-16,experiment,SSHSS,3,odd,30615,189858,NA,309000,310207,306027,4594,308489,NA,310098,4609,174975,NA,310207,310697,310090,Flanker Task,143,76172,149,yes,1024
Congruent,96,96,511.0466667,511.0466667,black,legacy,legacy,legacy,0,uniform,1,undefined,1,s,0,0,0,149,149,149,0,149,0,149,0,0,0,149,149,149,Sun Sep  9 21:50:03 2018,600,The main experiment item,yes,FlankerTask.osexp,/Users/hannahrae97/Desktop,no,mono,no,18,no,white,no,yes,768,legacy,69,79,/Users/hannahrae97/Desktop/CTsubject-3.csv,legacy,Kafkaesque Koffka,3.2.5,0,s,NA,s,h,NA,s,485,NA,25984,14881,NA,485,2,legacy,1024,2,48000,-16,experiment,SSSSS,3,odd,30615,189858,NA,310709,311917,306027,4594,308489,NA,311807,4609,174975,NA,311917,312404,311799,Flanker Task,144,76657,150,yes,1024
incongruent,96.02649007,96.02649007,511.9403974,511.9403974,black,legacy,legacy,legacy,0,uniform,1,undefined,1,h,0,0,0,150,150,150,0,150,0,150,0,0,0,150,150,150,Sun Sep  9 21:50:03 2018,600,The main experiment item,yes,FlankerTask.osexp,/Users/hannahrae97/Desktop,no,mono,no,18,no,white,no,yes,768,legacy,70,79,/Users/hannahrae97/Desktop/CTsubject-3.csv,legacy,Kafkaesque Koffka,3.2.5,0,h,NA,s,h,NA,h,646,NA,25984,14881,NA,646,2,legacy,1024,2,48000,-16,experiment,SSHSS,3,odd,30615,189858,NA,312415,313633,306027,4594,308489,NA,313520,4609,174975,NA,313633,314281,313512,Flanker Task,145,77303,151,yes,1024
incongruent,96.05263158,96.05263158,511.7763158,511.7763158,black,legacy,legacy,legacy,0,uniform,1,undefined,1,h,0,0,0,151,151,151,0,151,0,151,0,0,0,151,151,151,Sun Sep  9 21:50:03 2018,600,The main experiment item,yes,FlankerTask.osexp,/Users/hannahrae97/Desktop,no,mono,no,18,no,white,no,yes,768,legacy,71,79,/Users/hannahrae97/Desktop/CTsubject-3.csv,legacy,Kafkaesque Koffka,3.2.5,0,h,NA,s,h,NA,h,487,NA,25984,14881,NA,487,2,legacy,1024,2,48000,-16,experiment,SSHSS,3,odd,30615,189858,NA,314804,316022,306027,4594,314292,NA,315914,4609,174975,NA,316022,316511,315906,Flanker Task,146,77790,152,yes,1024
incongruent,96.07843137,96.07843137,512.248366,512.248366,black,legacy,legacy,legacy,0,uniform,1,undefined,1,s,0,0,0,152,152,152,0,152,0,152,0,0,0,152,152,152,Sun Sep  9 21:50:03 2018,600,The main experiment item,yes,FlankerTask.osexp,/Users/hannahrae97/Desktop,no,mono,no,18,no,white,no,yes,768,legacy,72,79,/Users/hannahrae97/Desktop/CTsubject-3.csv,legacy,Kafkaesque Koffka,3.2.5,0,s,NA,s,h,NA,s,584,NA,25984,14881,NA,584,2,legacy,1024,2,48000,-16,experiment,HHSHH,3,odd,30615,189858,NA,316524,317744,306027,4594,314292,NA,317634,4609,174975,NA,317744,318330,317625,Flanker Task,147,78374,153,yes,1024
Congruent,96.1038961,96.1038961,511.6818182,511.6818182,black,legacy,legacy,legacy,0,uniform,1,undefined,1,s,0,0,0,153,153,153,0,153,0,153,0,0,0,153,153,153,Sun Sep  9 21:50:03 2018,600,The main experiment item,yes,FlankerTask.osexp,/Users/hannahrae97/Desktop,no,mono,no,18,no,white,no,yes,768,legacy,73,79,/Users/hannahrae97/Desktop/CTsubject-3.csv,legacy,Kafkaesque Koffka,3.2.5,0,s,NA,s,h,NA,s,425,NA,25984,14881,NA,425,2,legacy,1024,2,48000,-16,experiment,SSSSS,3,odd,30615,189858,NA,318345,319556,306027,4594,314292,NA,319446,4609,174975,NA,319556,319983,319437,Flanker Task,148,78799,154,yes,1024
congruent,96.12903226,96.12903226,511.2,511.2,black,legacy,legacy,legacy,0,uniform,1,undefined,1,h,0,0,0,154,154,154,0,154,0,154,0,0,0,154,154,154,Sun Sep  9 21:50:03 2018,600,The main experiment item,yes,FlankerTask.osexp,/Users/hannahrae97/Desktop,no,mono,no,18,no,white,no,yes,768,legacy,74,79,/Users/hannahrae97/Desktop/CTsubject-3.csv,legacy,Kafkaesque Koffka,3.2.5,0,h,NA,s,h,NA,h,437,NA,25984,14881,NA,437,2,legacy,1024,2,48000,-16,experiment,HHHHH,3,odd,30615,189858,NA,319996,321211,306027,4594,314292,NA,321102,4609,174975,NA,321211,321650,321092,Flanker Task,149,79236,155,yes,1024
incongruent,96.15384615,96.15384615,511.2564103,511.2564103,black,legacy,legacy,legacy,0,uniform,1,undefined,1,s,0,0,0,155,155,155,0,155,0,155,0,0,0,155,155,155,Sun Sep  9 21:50:03 2018,600,The main experiment item,yes,FlankerTask.osexp,/Users/hannahrae97/Desktop,no,mono,no,18,no,white,no,yes,768,legacy,75,79,/Users/hannahrae97/Desktop/CTsubject-3.csv,legacy,Kafkaesque Koffka,3.2.5,0,s,NA,s,h,NA,s,520,NA,25984,14881,NA,520,2,legacy,1024,2,48000,-16,experiment,HHSHH,3,odd,30615,189858,NA,321661,322879,306027,4594,314292,NA,322764,4609,174975,NA,322879,323401,322755,Flanker Task,150,79756,156,yes,1024
incongruent,96.17834395,96.17834395,512.1401274,512.1401274,black,legacy,legacy,legacy,0,uniform,1,undefined,1,s,0,0,0,156,156,156,0,156,0,156,0,0,0,156,156,156,Sun Sep  9 21:50:03 2018,600,The main experiment item,yes,FlankerTask.osexp,/Users/hannahrae97/Desktop,no,mono,no,18,no,white,no,yes,768,legacy,76,79,/Users/hannahrae97/Desktop/CTsubject-3.csv,legacy,Kafkaesque Koffka,3.2.5,0,s,NA,s,h,NA,s,650,NA,25984,14881,NA,650,2,legacy,1024,2,48000,-16,experiment,HHSHH,3,odd,30615,189858,NA,323415,324625,306027,4594,314292,NA,324517,4609,174975,NA,324625,325277,324509,Flanker Task,151,80406,157,yes,1024
incongruent,96.20253165,96.20253165,511.721519,511.721519,black,legacy,legacy,legacy,0,uniform,1,undefined,1,s,0,0,0,157,157,157,0,157,0,157,0,0,0,157,157,157,Sun Sep  9 21:50:03 2018,600,The main experiment item,yes,FlankerTask.osexp,/Users/hannahrae97/Desktop,no,mono,no,18,no,white,no,yes,768,legacy,77,79,/Users/hannahrae97/Desktop/CTsubject-3.csv,legacy,Kafkaesque Koffka,3.2.5,0,s,NA,s,h,NA,s,446,NA,25984,14881,NA,446,2,legacy,1024,2,48000,-16,experiment,HHSHH,3,odd,30615,189858,NA,325799,327015,306027,4594,325290,NA,326908,4609,174975,NA,327016,327464,326900,Flanker Task,152,80852,158,yes,1024
incongruent,96.22641509,96.22641509,511.6100629,511.6100629,black,legacy,legacy,legacy,0,uniform,1,undefined,1,h,0,0,0,158,158,158,0,158,0,158,0,0,0,158,158,158,Sun Sep  9 21:50:03 2018,600,The main experiment item,yes,FlankerTask.osexp,/Users/hannahrae97/Desktop,no,mono,no,18,no,white,no,yes,768,legacy,78,79,/Users/hannahrae97/Desktop/CTsubject-3.csv,legacy,Kafkaesque Koffka,3.2.5,0,h,NA,s,h,NA,h,494,NA,25984,14881,NA,494,2,legacy,1024,2,48000,-16,experiment,SSHSS,3,odd,30615,189858,NA,327475,328686,306027,4594,325290,NA,328577,4609,174975,NA,328686,329182,328566,Flanker Task,153,81346,159,yes,1024
Congruent,96.25,96.25,511.15,511.15,black,legacy,legacy,legacy,0,uniform,1,undefined,1,s,0,0,0,159,159,159,0,159,0,159,0,0,0,159,159,159,Sun Sep  9 21:50:03 2018,600,The main experiment item,yes,FlankerTask.osexp,/Users/hannahrae97/Desktop,no,mono,no,18,no,white,no,yes,768,legacy,79,79,/Users/hannahrae97/Desktop/CTsubject-3.csv,legacy,Kafkaesque Koffka,3.2.5,0,s,NA,s,h,NA,s,438,NA,25984,14881,NA,438,2,legacy,1024,2,48000,-16,experiment,SSSSS,3,odd,30615,189858,NA,329199,330415,306027,4594,325290,NA,330302,4609,174975,NA,330415,330855,330294,Flanker Task,154,81784,160,yes,1024
incongruent,96.27329193,96.27329193,512.8757764,512.8757764,black,legacy,legacy,legacy,0,uniform,1,undefined,1,s,0,0,0,160,160,160,0,160,0,160,0,0,0,160,160,160,Sun Sep  9 21:50:03 2018,300,The main experiment item,yes,FlankerTask.osexp,/Users/hannahrae97/Desktop,no,mono,no,18,no,white,no,yes,768,legacy,0,79,/Users/hannahrae97/Desktop/CTsubject-3.csv,legacy,Kafkaesque Koffka,3.2.5,0,s,NA,s,h,s,s,789,NA,25984,14881,27723,789,2,legacy,1024,2,48000,-16,experiment,HHSHH,3,odd,30615,189858,359624,330867,359826,306027,4594,325290,NA,359714,4609,174975,331898,359826,360617,359706,Flanker Task,155,82573,161,yes,1024
congruent,96.2962963,96.2962963,514.3950617,514.3950617,black,legacy,legacy,legacy,0,uniform,1,undefined,1,h,0,0,0,161,161,161,0,161,0,161,0,0,0,161,161,161,Sun Sep  9 21:50:03 2018,300,The main experiment item,yes,FlankerTask.osexp,/Users/hannahrae97/Desktop,no,mono,no,18,no,white,no,yes,768,legacy,1,79,/Users/hannahrae97/Desktop/CTsubject-3.csv,legacy,Kafkaesque Koffka,3.2.5,0,h,NA,s,h,s,h,759,NA,25984,14881,27723,759,2,legacy,1024,2,48000,-16,experiment,HHHHH,3,odd,30615,189858,359624,361138,362351,306027,4594,360630,NA,362242,4609,174975,331898,362352,363114,362234,Flanker Task,156,83332,162,yes,1024
Congruent,96.3190184,96.3190184,513.9447853,513.9447853,black,legacy,legacy,legacy,0,uniform,1,undefined,1,s,0,0,0,162,162,162,0,162,0,162,0,0,0,162,162,162,Sun Sep  9 21:50:03 2018,300,The main experiment item,yes,FlankerTask.osexp,/Users/hannahrae97/Desktop,no,mono,no,18,no,white,no,yes,768,legacy,2,79,/Users/hannahrae97/Desktop/CTsubject-3.csv,legacy,Kafkaesque Koffka,3.2.5,0,s,NA,s,h,s,s,441,NA,25984,14881,27723,441,2,legacy,1024,2,48000,-16,experiment,SSSSS,3,odd,30615,189858,359624,363635,364843,306027,4594,363126,NA,364735,4609,174975,331898,364843,365286,364727,Flanker Task,157,83773,163,yes,1024
incongruent,96.34146341,96.34146341,513.0792683,513.0792683,black,legacy,legacy,legacy,0,uniform,1,undefined,1,h,0,0,0,163,163,163,0,163,0,163,0,0,0,163,163,163,Sun Sep  9 21:50:03 2018,300,The main experiment item,yes,FlankerTask.osexp,/Users/hannahrae97/Desktop,no,mono,no,18,no,white,no,yes,768,legacy,3,79,/Users/hannahrae97/Desktop/CTsubject-3.csv,legacy,Kafkaesque Koffka,3.2.5,0,h,NA,s,h,s,h,372,NA,25984,14881,27723,372,2,legacy,1024,2,48000,-16,experiment,SSHSS,3,odd,30615,189858,359624,365811,367026,306027,4594,365299,NA,366916,4609,174975,331898,367026,367402,366909,Flanker Task,158,84145,164,yes,1024
congruent,96.36363636,96.36363636,512.5333333,512.5333333,black,legacy,legacy,legacy,0,uniform,1,undefined,1,h,0,0,0,164,164,164,0,164,0,164,0,0,0,164,164,164,Sun Sep  9 21:50:03 2018,300,The main experiment item,yes,FlankerTask.osexp,/Users/hannahrae97/Desktop,no,mono,no,18,no,white,no,yes,768,legacy,4,79,/Users/hannahrae97/Desktop/CTsubject-3.csv,legacy,Kafkaesque Koffka,3.2.5,0,h,NA,s,h,s,h,423,NA,25984,14881,27723,423,2,legacy,1024,2,48000,-16,experiment,HHHHH,3,odd,30615,189858,359624,367928,369140,306027,4594,367414,NA,369030,4609,174975,331898,369140,369566,369023,Flanker Task,159,84568,165,yes,1024
incongruent,95.78313253,95.78313253,512.3313253,512.3313253,black,legacy,legacy,legacy,0,uniform,0,undefined,0,s,0,0,0,165,165,165,0,165,0,165,0,0,0,165,165,165,Sun Sep  9 21:50:03 2018,300,The main experiment item,yes,FlankerTask.osexp,/Users/hannahrae97/Desktop,no,mono,no,18,no,white,no,yes,768,legacy,5,79,/Users/hannahrae97/Desktop/CTsubject-3.csv,legacy,Kafkaesque Koffka,3.2.5,0,h,NA,s,h,s,h,479,NA,25984,14881,27723,479,2,legacy,1024,2,48000,-16,experiment,HHSHH,3,odd,30615,189858,359624,370089,371304,306027,4594,369578,NA,371194,4609,174975,331898,371304,371785,371186,Flanker Task,159,85047,166,yes,1024
Congruent,95.80838323,95.80838323,511.5988024,511.5988024,black,legacy,legacy,legacy,0,uniform,1,undefined,1,s,0,0,0,166,166,166,0,166,0,166,0,0,0,166,166,166,Sun Sep  9 21:50:03 2018,300,The main experiment item,yes,FlankerTask.osexp,/Users/hannahrae97/Desktop,no,mono,no,18,no,white,no,yes,768,legacy,6,79,/Users/hannahrae97/Desktop/CTsubject-3.csv,legacy,Kafkaesque Koffka,3.2.5,0,s,NA,s,h,s,s,390,NA,25984,14881,27723,390,2,legacy,1024,2,48000,-16,experiment,SSSSS,3,odd,30615,189858,359624,372819,374025,371797,4594,372306,NA,373916,4609,174975,331898,374025,374417,373908,Flanker Task,160,85437,167,yes,1024
